file_name,subID,phase,trial,stim,stim_cat,resp_cat,resp_time,correct,hit,event,prev_resp_same_cat,prev_resp_correct,prev_resp_hit,next_resp_same_cat,next_resp_correct,next_resp_hit,next_cat_change,RewP,stim_SPN,fdbk_SPN
F1_acq,F01,acq,1,1f,1,4,27089,incorrect,-1,1,,,,,,,,6.8587,4.8128,
F1_acq,F01,acq,2,2m,2,4,32099,incorrect,-1,3,,,,,,,,-2.3218,-9.4142,-12.3841
F1_acq,F01,acq,3,5i,5,4,25420,incorrect,-1,5,,,,,,,,-5.9158,1.0654,-133.7106
F1_acq,F01,acq,4,3g,3,4,31765,incorrect,-1,7,,,,,,,,8.7994,15.4984,
F1_acq,F01,acq,5,3l,3,3,29761,correct,1,9,4,incorrect,-1,3,correct,1,0,-0.8513,-42.2926,19.8269
F1_acq,F01,acq,6,1d,1,2,30763,incorrect,-1,11,4,incorrect,-1,5,incorrect,-1,1,0.7669,-15.8159,-46.2976
F1_acq,F01,acq,7,2d,2,1,16569,incorrect,-1,13,4,incorrect,-1,1,incorrect,-1,0,1.2098,-1.2886,-14.5528
F1_acq,F01,acq,8,4h,4,2,27591,incorrect,-1,15,,,,5,incorrect,-1,1,-10.609,13.1904,-9.7128
F1_acq,F01,acq,9,5g,5,5,76517,correct,1,17,4,incorrect,-1,1,incorrect,-1,1,-1.8759,-13.9221,53.2775
F1_acq,F01,acq,10,3j,3,3,98058,correct,1,19,3,correct,1,5,incorrect,-1,1,-7.3991,-29.0834,-0.6603
F1_acq,F01,acq,11,2k,2,1,38111,incorrect,-1,21,1,incorrect,-1,1,incorrect,-1,0,5.499,11.9881,-39.8991
F1_acq,F01,acq,12,2j,2,1,32433,incorrect,-1,23,1,incorrect,-1,2,correct,1,1,-6.8025,-4.9755,-105.9911
F1_acq,F01,acq,13,1m,1,5,49800,incorrect,-1,25,2,incorrect,-1,3,incorrect,-1,1,1.637,-9.2554,18.7017
F1_acq,F01,acq,14,1k,1,3,46126,incorrect,-1,27,5,incorrect,-1,4,incorrect,-1,1,-7.7011,-15.6355,-93.1761
F1_acq,F01,acq,15,2o,2,2,23249,correct,1,29,1,incorrect,-1,3,incorrect,-1,1,-0.8541,6.6893,-61.4256
F1_acq,F01,acq,16,5h,5,1,101064,incorrect,-1,31,5,correct,1,2,incorrect,-1,1,5.6811,10.4648,58.4689
F1_acq,F01,acq,17,4o,4,5,48296,incorrect,-1,33,2,incorrect,-1,1,incorrect,-1,1,9.9489,-1.2884,-10.3584
F1_acq,F01,acq,18,1h,1,4,35105,incorrect,-1,35,3,incorrect,-1,3,incorrect,-1,1,-7.713,-15.3364,57.1987
F1_acq,F01,acq,19,1n,1,3,44122,incorrect,-1,37,4,incorrect,-1,2,incorrect,-1,1,3.6397,8.4996,2.5742
F1_acq,F01,acq,20,4k,4,1,63492,incorrect,-1,39,5,incorrect,-1,1,incorrect,-1,0,8.8789,-3.3363,-14.0096
F1_acq,F01,acq,21,5p,5,2,58148,incorrect,-1,41,1,incorrect,-1,3,incorrect,-1,1,-8.5338,-6.672,58.2146
F1_acq,F01,acq,22,3d,3,5,81527,incorrect,-1,43,3,correct,1,4,incorrect,-1,1,-7.3836,-7.304,20.0247
F1_acq,F01,acq,23,4l,4,1,63827,incorrect,-1,45,1,incorrect,-1,5,incorrect,-1,1,9.5005,-25.2147,-15.3785
F1_acq,F01,acq,24,3n,3,4,58817,incorrect,-1,47,5,incorrect,-1,4,incorrect,-1,0,6.1239,-20.6792,-21.9482
F1_acq,F01,acq,25,4a,4,5,42285,incorrect,-1,49,1,incorrect,-1,3,incorrect,-1,1,-4.2899,-3.6859,53.5809
F1_acq,F01,acq,26,5k,5,3,35773,incorrect,-1,51,2,incorrect,-1,3,incorrect,-1,0,0.0297,,
F1_acq,F01,acq,27,1c,1,2,48463,incorrect,-1,53,3,incorrect,-1,5,incorrect,-1,1,15.1027,-6.5355,
F1_acq,F01,acq,28,2e,2,3,57147,incorrect,-1,55,2,correct,1,4,incorrect,-1,1,-4.7345,-12.9777,49.0508
F1_acq,F01,acq,29,2a,2,4,60486,incorrect,-1,57,3,incorrect,-1,1,incorrect,-1,1,-3.9044,10.5526,7.735
F1_acq,F01,acq,30,5b,5,3,48464,incorrect,-1,59,3,incorrect,-1,4,incorrect,-1,1,0.2483,-2.8171,-30.0616
F1_acq,F01,acq,31,2g,2,1,69170,incorrect,-1,61,4,incorrect,-1,2,correct,1,1,1.4269,10.2856,-22.2395
F1_acq,F01,acq,32,2p,2,2,62824,correct,1,63,1,incorrect,-1,2,correct,1,0,-30.2707,-19.4806,59.6741
F1_acq,F01,acq,33,2n,2,2,13898,correct,1,65,2,correct,1,1,incorrect,-1,1,14.3234,-26.0488,16.5704
F1_acq,F01,acq,34,4b,4,3,36775,incorrect,-1,67,5,incorrect,-1,2,incorrect,-1,1,0.4843,-5.6595,-3.0538
F1_acq,F01,acq,35,3f,3,4,28593,incorrect,-1,69,4,incorrect,-1,1,incorrect,-1,1,-9.2673,-22.5299,
F1_acq,F01,acq,36,5e,5,4,33936,incorrect,-1,71,3,incorrect,-1,3,incorrect,-1,1,-13.0351,-11.6158,52.0585
F1_acq,F01,acq,37,1j,1,5,15902,incorrect,-1,73,2,incorrect,-1,1,correct,1,1,-3.7045,-1.7144,-129.9556
F1_acq,F01,acq,38,4f,4,2,38278,incorrect,-1,75,3,incorrect,-1,2,incorrect,-1,0,9.4837,-23.2343,-71.4919
F1_acq,F01,acq,39,2h,2,1,17071,incorrect,-1,77,2,correct,1,2,correct,1,1,1.0137,-8.1473,-43.0998
F1_acq,F01,acq,40,3m,3,1,27257,incorrect,-1,79,4,incorrect,-1,3,correct,1,1,-1.9261,11.2863,6.3923
F1_acq,F01,acq,41,4g,4,2,27590,incorrect,-1,81,2,incorrect,-1,4,correct,1,1,4.9472,-7.0824,7.1707
F1_acq,F01,acq,42,5o,5,3,22581,incorrect,-1,83,4,incorrect,-1,2,incorrect,-1,1,-6.896,,60.3277
F1_acq,F01,acq,43,4m,4,4,28759,correct,1,85,2,incorrect,-1,4,correct,1,0,-2.7519,9.8564,26.2204
F1_acq,F01,acq,44,4c,4,4,18406,correct,1,87,4,correct,1,4,correct,1,0,12.9517,1.0996,-23.2837
F1_acq,F01,acq,45,3i,3,3,31098,correct,1,89,1,incorrect,-1,3,correct,1,0,-5.6253,-15.0666,
F1_acq,F01,acq,46,3e,3,3,19075,correct,1,91,3,correct,1,3,correct,1,0,-8.489,-39.5042,
F1_acq,F01,acq,47,4j,4,4,19075,correct,1,93,4,correct,1,5,incorrect,-1,1,25.9954,-7.1918,-3.9583
F1_acq,F01,acq,48,3p,3,3,14565,correct,1,95,3,correct,1,3,correct,1,0,-8.0457,-9.2468,49.309
F1_acq,F01,acq,49,3o,3,3,22581,correct,1,97,3,correct,1,5,incorrect,-1,1,13.2734,-11.0877,-33.5633
F1_acq,F01,acq,50,5n,5,2,22915,incorrect,-1,99,3,incorrect,-1,5,correct,1,1,-5.9949,16.1242,
F1_acq,F01,acq,51,1p,1,1,14232,correct,1,101,5,incorrect,-1,1,correct,1,0,7.3367,-9.2551,-32.0435
F1_acq,F01,acq,52,2b,2,2,25420,correct,1,103,1,incorrect,-1,2,correct,1,0,12.8564,4.3958,
F1_acq,F01,acq,53,2c,2,2,13397,correct,1,105,2,correct,1,3,incorrect,-1,1,1.0496,-2.2763,-36.1486
F1_acq,F01,acq,54,4p,4,5,24083,incorrect,-1,107,4,correct,1,3,incorrect,-1,1,18.0273,4.3376,-32.5349
F1_acq,F01,acq,55,1g,1,1,31098,correct,1,109,1,correct,1,1,correct,1,0,,-24.9916,
F1_acq,F01,acq,56,3h,3,5,24251,incorrect,-1,111,3,correct,1,3,correct,1,1,-1.4117,,-68.2228
F1_acq,F01,acq,57,2f,2,2,29427,correct,1,113,2,correct,1,3,incorrect,-1,1,4.7652,-27.2178,115.2558
F1_acq,F01,acq,58,5m,5,5,45291,correct,1,115,2,incorrect,-1,2,incorrect,-1,1,22.5912,-22.9942,-43.6793
F1_acq,F01,acq,59,4n,4,3,25420,incorrect,-1,117,5,incorrect,-1,4,correct,1,1,-6.6999,-9.1875,
F1_acq,F01,acq,60,1i,1,1,53307,correct,1,119,1,correct,1,2,incorrect,-1,1,7.6335,-18.0502,
F1_acq,F01,acq,61,2l,2,3,68668,incorrect,-1,121,2,correct,1,5,incorrect,-1,1,-4.729,22.1326,-29.9042
F1_acq,F01,acq,62,3b,3,3,44122,correct,1,123,5,incorrect,-1,3,correct,1,0,-18.0427,-5.6452,
F1_acq,F01,acq,63,4e,4,4,20410,correct,1,125,3,incorrect,-1,4,correct,1,0,-3.5748,4.4,88.509
F1_acq,F01,acq,64,5a,5,2,15568,incorrect,-1,127,5,correct,1,5,correct,1,1,-6.0418,-20.0884,16.287
F1_acq,F01,acq,65,3a,3,3,19576,correct,1,129,3,correct,1,3,correct,1,0,7.6266,-3.5834,38.8043
F1_acq,F01,acq,66,4i,4,4,15401,correct,1,131,4,correct,1,3,incorrect,-1,1,1.3904,-4.5796,-60.9842
F1_acq,F01,acq,67,3k,3,3,32934,correct,1,133,3,correct,1,1,incorrect,-1,1,25.5585,-21.8077,11.9622
F1_acq,F01,acq,68,5j,5,5,53974,correct,1,135,2,incorrect,-1,2,incorrect,-1,1,-3.4864,-10.867,-41.1297
F1_acq,F01,acq,69,5c,5,2,55477,incorrect,-1,137,5,correct,1,2,incorrect,-1,0,7.2164,-6.0385,-34.8559
F1_acq,F01,acq,70,3c,3,1,20577,incorrect,-1,139,3,correct,1,,,,,5.0225,-30.0995,2.1324
F1_acq,F01,acq,71,1e,1,2,41450,incorrect,-1,141,1,correct,1,5,incorrect,-1,1,-12.5792,-2.2058,-20.5833
F1_acq,F01,acq,72,5d,5,2,29594,incorrect,-1,143,2,incorrect,-1,1,incorrect,-1,1,1.5485,-7.8486,
F1_acq,F01,acq,73,1a,1,5,90210,incorrect,-1,145,2,incorrect,-1,1,correct,1,1,13.2388,-4.349,49.6143
F1_acq,F01,acq,74,1o,1,1,38612,correct,1,147,5,incorrect,-1,1,correct,1,0,27.2577,,-44.6865
F1_acq,F01,acq,75,5l,5,1,28592,incorrect,-1,149,2,incorrect,-1,2,incorrect,-1,1,7.4506,-33.5083,-50.2281
F1_acq,F01,acq,76,2i,2,5,50635,incorrect,-1,151,3,incorrect,-1,,,,,10.4268,-19.5083,
F1_acq,F01,acq,77,1l,1,1,25754,correct,1,153,1,correct,1,2,incorrect,-1,1,10.3294,-37.083,
F1_acq,F01,acq,78,1b,1,2,38945,incorrect,-1,155,1,correct,1,,,,,12.2174,6.1528,-101.4255
F1_acq,F01,acq,79,5f,5,2,79690,incorrect,-1,157,1,incorrect,-1,,,,,,2.3886,
F1_acq,F01,acq,80,4d,4,3,18907,incorrect,-1,159,4,correct,1,,,,,5.4587,,
F2_acq,F02,acq,1,1f,1,1,19575,correct,1,1,,,,,,,,-2.8001,-22.6745,-17.3677
F2_acq,F02,acq,2,2m,2,2,19241,correct,1,3,,,,,,,,4.8064,-22.2468,17.1571
F2_acq,F02,acq,3,5i,5,2,21913,incorrect,-1,5,,,,,,,,15.6895,32.8025,-21.5638
F2_acq,F02,acq,4,3g,3,3,28759,correct,1,7,,,,,,,,9.4079,-9.2435,-4.8772
F2_acq,F02,acq,5,3l,3,3,35439,correct,1,9,3,correct,1,2,incorrect,-1,1,10.641,-30.8146,-24.2747
F2_acq,F02,acq,6,1d,1,4,32934,incorrect,-1,11,1,correct,1,1,correct,1,1,-0.1875,5.7942,19.8027
F2_acq,F02,acq,7,2d,2,5,22736,incorrect,-1,13,2,correct,1,4,incorrect,-1,1,8.0208,6.3457,-24.9397
F2_acq,F02,acq,8,4h,4,1,26087,incorrect,-1,15,,,,1,incorrect,-1,0,2.5652,15.5891,-7.2756
F2_acq,F02,acq,9,5g,5,3,36775,incorrect,-1,17,2,incorrect,-1,5,correct,1,1,-5.6012,-32.6116,-0.1733
F2_acq,F02,acq,10,3j,3,2,29093,incorrect,-1,19,3,correct,1,4,incorrect,-1,1,3.0471,-5.7902,-1.3001
F2_acq,F02,acq,11,2k,2,4,26422,incorrect,-1,21,5,incorrect,-1,5,incorrect,-1,1,4.3068,7.6888,6.7926
F2_acq,F02,acq,12,2j,2,5,20411,incorrect,-1,23,4,incorrect,-1,4,incorrect,-1,1,12.7507,-3.3333,-2.6804
F2_acq,F02,acq,13,1m,1,1,45458,correct,1,25,4,incorrect,-1,1,correct,1,0,7.7231,10.2003,-22.0949
F2_acq,F02,acq,14,1k,1,1,26255,correct,1,27,1,correct,1,4,incorrect,-1,1,5.2415,5.0975,-18.138
F2_acq,F02,acq,15,2o,2,4,50801,incorrect,-1,29,5,incorrect,-1,3,incorrect,-1,1,-0.577,23.3868,-11.1801
F2_acq,F02,acq,16,5h,5,5,30930,correct,1,31,3,incorrect,-1,5,correct,1,0,14.9162,2.2619,-20.4312
F2_acq,F02,acq,17,4o,4,1,46961,incorrect,-1,33,1,incorrect,-1,2,incorrect,-1,1,-9.7356,-13.6497,-23.7892
F2_acq,F02,acq,18,1h,1,4,41116,incorrect,-1,35,1,correct,1,3,incorrect,-1,1,9.024,2.6489,-10.8552
F2_acq,F02,acq,19,1n,1,3,42285,incorrect,-1,37,4,incorrect,-1,2,incorrect,-1,1,8.0815,4.0692,-9.0037
F2_acq,F02,acq,20,4k,4,2,30930,incorrect,-1,39,1,incorrect,-1,5,incorrect,-1,1,-0.694,11.9112,-7.2341
F2_acq,F02,acq,21,5p,5,5,52471,correct,1,41,5,correct,1,5,correct,1,0,-1.7932,-11.531,-7.8013
F2_acq,F02,acq,22,3d,3,4,48463,incorrect,-1,43,2,incorrect,-1,5,incorrect,-1,1,5.9709,-26.8806,-8.5616
F2_acq,F02,acq,23,4l,4,5,27090,incorrect,-1,45,2,incorrect,-1,2,incorrect,-1,1,1.3597,4.7121,-6.6179
F2_acq,F02,acq,24,3n,3,5,52638,incorrect,-1,47,4,incorrect,-1,5,incorrect,-1,0,-1.367,7.905,-11.6805
F2_acq,F02,acq,25,4a,4,2,28258,incorrect,-1,49,5,incorrect,-1,5,incorrect,-1,1,4.8111,-13.6417,1.9548
F2_acq,F02,acq,26,5k,5,5,87204,correct,1,51,5,correct,1,3,incorrect,-1,1,2.0096,14.4761,1.6234
F2_acq,F02,acq,27,1c,1,2,37943,incorrect,-1,53,3,incorrect,-1,1,correct,1,1,-2.5326,-3.418,-9.4603
F2_acq,F02,acq,28,2e,2,3,19743,incorrect,-1,55,4,incorrect,-1,1,incorrect,-1,1,0.669,-15.1979,-11.1779
F2_acq,F02,acq,29,2a,2,1,68502,incorrect,-1,57,3,incorrect,-1,1,incorrect,-1,0,12.1641,-18.6198,18.707
F2_acq,F02,acq,30,5b,5,3,23583,incorrect,-1,59,5,correct,1,1,incorrect,-1,1,6.8697,-13.324,-14.7992
F2_acq,F02,acq,31,2g,2,1,74847,incorrect,-1,61,1,incorrect,-1,1,incorrect,-1,0,1.5037,-15.2547,-14.721
F2_acq,F02,acq,32,2p,2,1,33436,incorrect,-1,63,1,incorrect,-1,1,incorrect,-1,0,5.3122,-21.8102,-17.5923
F2_acq,F02,acq,33,2n,2,1,44957,incorrect,-1,65,1,incorrect,-1,2,correct,1,1,3.7059,-7.2676,-4.8581
F2_acq,F02,acq,34,4b,4,5,42285,incorrect,-1,67,2,incorrect,-1,5,incorrect,-1,0,15.435,2.0545,-6.2121
F2_acq,F02,acq,35,3f,3,5,74180,incorrect,-1,69,5,incorrect,-1,3,correct,1,1,3.3556,8.9677,-3.7304
F2_acq,F02,acq,36,5e,5,1,82362,incorrect,-1,71,3,incorrect,-1,5,correct,1,1,1.1649,-15.4848,13.8607
F2_acq,F02,acq,37,1j,1,1,25420,correct,1,73,2,incorrect,-1,1,correct,1,0,6.5599,-29.8786,0.4453
F2_acq,F02,acq,38,4f,4,5,82028,incorrect,-1,75,5,incorrect,-1,4,correct,1,1,-2.9037,10.8303,3.9787
F2_acq,F02,acq,39,2h,2,2,86369,correct,1,77,1,incorrect,-1,3,incorrect,-1,1,-1.7931,-24.5803,-7.7021
F2_acq,F02,acq,40,3m,3,3,55143,correct,1,79,5,incorrect,-1,3,correct,1,0,2.0843,-4.8801,-9.2931
F2_acq,F02,acq,41,4g,4,4,76350,correct,1,81,5,incorrect,-1,2,incorrect,-1,1,-0.4926,-6.5053,6.4512
F2_acq,F02,acq,42,5o,5,5,38946,correct,1,83,1,incorrect,-1,5,correct,1,0,8.8958,-28.7714,8.7474
F2_acq,F02,acq,43,4m,4,2,35104,incorrect,-1,85,5,incorrect,-1,2,incorrect,-1,0,0.2846,-3.9723,11.4165
F2_acq,F02,acq,44,4c,4,2,83865,incorrect,-1,87,2,incorrect,-1,4,correct,1,1,5.9335,-13.1208,-22.6724
F2_acq,F02,acq,45,3i,3,3,15067,correct,1,89,3,correct,1,3,correct,1,0,10.1758,-10.9835,-0.3885
F2_acq,F02,acq,46,3e,3,3,54976,correct,1,91,3,correct,1,3,correct,1,0,-5.1253,,-31.6986
F2_acq,F02,acq,47,4j,4,4,79189,correct,1,93,2,incorrect,-1,5,incorrect,-1,1,7.7761,-12.8426,23.1285
F2_acq,F02,acq,48,3p,3,3,26088,correct,1,95,3,correct,1,3,correct,1,0,-1.5161,-4.2081,26.6503
F2_acq,F02,acq,49,3o,3,3,16737,correct,1,97,3,correct,1,3,correct,1,0,2.0194,11.0352,1.4429
F2_acq,F02,acq,50,5n,5,5,54642,correct,1,99,5,correct,1,2,incorrect,-1,1,6.9255,10.3762,-19.1293
F2_acq,F02,acq,51,1p,1,1,50635,correct,1,101,1,correct,1,4,incorrect,-1,1,5.5402,-7.9725,0.0655
F2_acq,F02,acq,52,2b,2,3,53140,incorrect,-1,103,2,correct,1,2,correct,1,1,3.2609,34.7429,14.6164
F2_acq,F02,acq,53,2c,2,2,85534,correct,1,105,3,incorrect,-1,3,incorrect,-1,1,14.1293,-0.2826,15.8524
F2_acq,F02,acq,54,4p,4,5,54308,incorrect,-1,107,4,correct,1,4,correct,1,1,8.9378,-12.7182,26.6819
F2_acq,F02,acq,55,1g,1,4,72343,incorrect,-1,109,1,correct,1,2,incorrect,-1,1,13.5538,1.8539,-17.733
F2_acq,F02,acq,56,3h,3,3,16903,correct,1,111,3,correct,1,3,correct,1,0,3.9581,2.3179,-0.1694
F2_acq,F02,acq,57,2f,2,3,31932,incorrect,-1,113,2,correct,1,3,incorrect,-1,0,2.93,15.2636,-9.3989
F2_acq,F02,acq,58,5m,5,2,89041,incorrect,-1,115,5,correct,1,2,incorrect,-1,0,15.4583,29.6169,-6.1407
F2_acq,F02,acq,59,4n,4,4,86035,correct,1,117,5,incorrect,-1,5,incorrect,-1,1,3.4235,4.9101,-1.2547
F2_acq,F02,acq,60,1i,1,2,83029,incorrect,-1,119,4,incorrect,-1,2,incorrect,-1,0,-1.4045,-11.2955,-15.7253
F2_acq,F02,acq,61,2l,2,3,41617,incorrect,-1,121,3,incorrect,-1,3,incorrect,-1,0,10.1639,15.5479,-10.0631
F2_acq,F02,acq,62,3b,3,3,33602,correct,1,123,3,correct,1,2,incorrect,-1,1,9.1654,-9.9498,-8.2374
F2_acq,F02,acq,63,4e,4,5,88039,incorrect,-1,125,4,correct,1,5,incorrect,-1,0,4.1745,13.3001,-26.2644
F2_acq,F02,acq,64,5a,5,2,47795,incorrect,-1,127,2,incorrect,-1,2,incorrect,-1,0,0.2782,-15.9552,-23.2355
F2_acq,F02,acq,65,3a,3,2,96723,incorrect,-1,129,3,correct,1,5,incorrect,-1,1,3.4559,-13.4745,12.4429
F2_acq,F02,acq,66,4i,4,5,65997,incorrect,-1,131,5,incorrect,-1,2,incorrect,-1,1,0.3549,17.8561,-6.8964
F2_acq,F02,acq,67,3k,3,5,85510,incorrect,-1,133,2,incorrect,-1,2,incorrect,-1,1,-4.2385,6.7641,-2.4383
F2_acq,F02,acq,68,5j,5,2,40783,incorrect,-1,135,2,incorrect,-1,2,incorrect,-1,0,13.0114,-2.3917,-8.897
F2_acq,F02,acq,69,5c,5,2,66498,incorrect,-1,137,2,incorrect,-1,2,incorrect,-1,0,4.7846,14.1763,-13.7249
F2_acq,F02,acq,70,3c,3,2,70005,incorrect,-1,139,5,incorrect,-1,,,,,4.4272,0.8066,3.711
F2_acq,F02,acq,71,1e,1,2,90042,incorrect,-1,141,2,incorrect,-1,4,incorrect,-1,1,1.8944,-19.2136,-3.1928
F2_acq,F02,acq,72,5d,5,2,90377,incorrect,-1,143,2,incorrect,-1,2,incorrect,-1,0,10.3871,13.3233,13.5169
F2_acq,F02,acq,73,1a,1,4,20911,incorrect,-1,145,2,incorrect,-1,2,incorrect,-1,1,8.1337,-1.9841,7.2451
F2_acq,F02,acq,74,1o,1,2,114589,incorrect,-1,147,4,incorrect,-1,4,incorrect,-1,1,8.3429,3.0468,18.7843
F2_acq,F02,acq,75,5l,5,2,33435,incorrect,-1,149,2,incorrect,-1,2,incorrect,-1,0,3.6218,-17.7684,-2.055
F2_acq,F02,acq,76,2i,2,3,81026,incorrect,-1,151,3,incorrect,-1,,,,,13.9517,9.3455,-14.8593
F2_acq,F02,acq,77,1l,1,4,83029,incorrect,-1,153,2,incorrect,-1,2,incorrect,-1,1,6.3837,-9.5988,-11.713
F2_acq,F02,acq,78,1b,1,2,35940,incorrect,-1,155,4,incorrect,-1,,,,,7.0585,-11.2317,-14.291
F2_acq,F02,acq,79,5f,5,2,72009,incorrect,-1,157,2,incorrect,-1,,,,,2.0577,-17.9397,4.3556
F2_acq,F02,acq,80,4d,4,2,44790,incorrect,-1,159,5,incorrect,-1,,,,,-0.8031,-34.691,-17.2529
F3_Acq,F03,acq,1,1f,1,1,17071,correct,1,1,,,,,,,,-0.5955,-19.5842,7.4108
F3_Acq,F03,acq,2,2m,2,1,23751,incorrect,-1,3,,,,,,,,-6.3793,-20.2848,-14.3694
F3_Acq,F03,acq,3,5i,5,2,24585,incorrect,-1,5,,,,,,,,-1.1594,1.1416,-16.4094
F3_Acq,F03,acq,4,3g,3,2,23250,incorrect,-1,7,,,,,,,,-1.0634,6.086,3.5667
F3_Acq,F03,acq,5,3l,3,3,30597,correct,1,9,2,incorrect,-1,3,correct,1,0,1.45,14.9133,6.4671
F3_Acq,F03,acq,6,1d,1,1,21746,correct,1,11,1,correct,1,1,correct,1,0,14.1999,2.9981,-11.3314
F3_Acq,F03,acq,7,2d,2,3,28259,incorrect,-1,13,1,incorrect,-1,2,correct,1,1,-3.8577,-4.8204,-7.7947
F3_Acq,F03,acq,8,4h,4,2,36608,incorrect,-1,15,,,,4,correct,1,1,4.9351,-6.555,-18.3519
F3_Acq,F03,acq,9,5g,5,2,43788,incorrect,-1,17,2,incorrect,-1,3,incorrect,-1,1,0.3698,20.7715,-31.342
F3_Acq,F03,acq,10,3j,3,3,12562,correct,1,19,3,correct,1,4,incorrect,-1,1,4.3185,-9.8309,-17.0862
F3_Acq,F03,acq,11,2k,2,2,27758,correct,1,21,3,incorrect,-1,2,correct,1,0,19.8313,-11.9381,-3.4867
F3_Acq,F03,acq,12,2j,2,2,25587,correct,1,23,2,correct,1,2,correct,1,0,5.2792,-12.2932,-13.1988
F3_Acq,F03,acq,13,1m,1,1,52639,correct,1,25,1,correct,1,1,correct,1,0,18.0549,-20.5954,-4.5973
F3_Acq,F03,acq,14,1k,1,1,41450,correct,1,27,1,correct,1,1,correct,1,0,12.5591,-11.2185,-2.4343
F3_Acq,F03,acq,15,2o,2,2,18073,correct,1,29,2,correct,1,2,correct,1,0,5.086,11.1515,-17.6259
F3_Acq,F03,acq,16,5h,5,3,52972,incorrect,-1,31,2,incorrect,-1,3,incorrect,-1,0,21.6688,12.6305,-39.5341
F3_Acq,F03,acq,17,4o,4,4,34103,correct,1,33,2,incorrect,-1,4,correct,1,0,9.3737,-2.0511,-2.644
F3_Acq,F03,acq,18,1h,1,1,48130,correct,1,35,1,correct,1,1,correct,1,0,6.5192,7.2247,5.783
F3_Acq,F03,acq,19,1n,1,1,42453,correct,1,37,1,correct,1,2,incorrect,-1,1,13.6248,4.0811,-2.4721
F3_Acq,F03,acq,20,4k,4,4,29260,correct,1,39,4,correct,1,4,correct,1,0,25.1746,2.0917,-3.4524
F3_Acq,F03,acq,21,5p,5,3,18574,incorrect,-1,41,3,incorrect,-1,3,incorrect,-1,0,24.7842,-28.9141,-5.234
F3_Acq,F03,acq,22,3d,3,4,25253,incorrect,-1,43,3,correct,1,3,correct,1,1,9.3218,-21.6332,-27.0437
F3_Acq,F03,acq,23,4l,4,4,30095,correct,1,45,4,correct,1,1,incorrect,-1,1,-14.2035,-9.6005,-0.9514
F3_Acq,F03,acq,24,3n,3,3,16570,correct,1,47,4,incorrect,-1,3,correct,1,0,1.5366,-3.7478,-6.7261
F3_Acq,F03,acq,25,4a,4,1,59819,incorrect,-1,49,4,correct,1,4,correct,1,1,7.3764,-33.6876,-8.2979
F3_Acq,F03,acq,26,5k,5,3,29094,incorrect,-1,51,3,incorrect,-1,3,incorrect,-1,0,-13.3505,-3.2453,-25.1551
F3_Acq,F03,acq,27,1c,1,2,65830,incorrect,-1,53,1,correct,1,1,correct,1,1,13.7697,-3.9794,-25.6343
F3_Acq,F03,acq,28,2e,2,2,75182,correct,1,55,2,correct,1,2,correct,1,0,4.0378,7.5745,-17.9512
F3_Acq,F03,acq,29,2a,2,2,62491,correct,1,57,2,correct,1,2,correct,1,0,-8.5359,2.7676,18.901
F3_Acq,F03,acq,30,5b,5,3,25420,incorrect,-1,59,3,incorrect,-1,1,incorrect,-1,1,12.7746,-43.0234,-15.5419
F3_Acq,F03,acq,31,2g,2,2,43789,correct,1,61,2,correct,1,2,correct,1,0,11.0834,-13.7732,0.4344
F3_Acq,F03,acq,32,2p,2,2,52805,correct,1,63,2,correct,1,2,correct,1,0,9.6931,-14.2861,-10.1617
F3_Acq,F03,acq,33,2n,2,2,21412,correct,1,65,2,correct,1,3,incorrect,-1,1,4.0904,-7.6441,-2.2578
F3_Acq,F03,acq,34,4b,4,4,35272,correct,1,67,1,incorrect,-1,4,correct,1,0,21.3115,-20.1754,-28.3312
F3_Acq,F03,acq,35,3f,3,3,22748,correct,1,69,3,correct,1,3,correct,1,0,6.6322,5.3387,-10.7357
F3_Acq,F03,acq,36,5e,5,1,38946,incorrect,-1,71,3,incorrect,-1,3,incorrect,-1,1,11.6985,31.1967,10.077
F3_Acq,F03,acq,37,1j,1,1,77519,correct,1,73,2,incorrect,-1,1,correct,1,0,3.789,-1.9593,11.0795
F3_Acq,F03,acq,38,4f,4,4,20578,correct,1,75,4,correct,1,4,correct,1,0,0.0419,-26.9388,9.773
F3_Acq,F03,acq,39,2h,2,3,21246,incorrect,-1,77,2,correct,1,2,correct,1,1,0.683,-27.2133,0.7216
F3_Acq,F03,acq,40,3m,3,3,13063,correct,1,79,3,correct,1,3,correct,1,0,17.5588,-6.038,-3.3977
F3_Acq,F03,acq,41,4g,4,4,12061,correct,1,81,4,correct,1,4,correct,1,0,10.3335,-9.8047,-11.2197
F3_Acq,F03,acq,42,5o,5,3,51637,incorrect,-1,83,1,incorrect,-1,1,incorrect,-1,1,11.5893,-0.257,-3.3621
F3_Acq,F03,acq,43,4m,4,4,13063,correct,1,85,4,correct,1,4,correct,1,0,7.9262,5.9399,-28.6983
F3_Acq,F03,acq,44,4c,4,4,9223,correct,1,87,4,correct,1,4,correct,1,0,7.0993,3.0436,23.3366
F3_Acq,F03,acq,45,3i,3,3,11393,correct,1,89,3,correct,1,3,correct,1,0,-0.1938,-18.7539,3.5323
F3_Acq,F03,acq,46,3e,3,3,14065,correct,1,91,3,correct,1,3,correct,1,0,15.2998,-5.8892,-22.0347
F3_Acq,F03,acq,47,4j,4,4,13898,correct,1,93,4,correct,1,4,correct,1,0,8.5786,4.3352,8.7465
F3_Acq,F03,acq,48,3p,3,3,8889,correct,1,95,3,correct,1,3,correct,1,0,3.037,6.7129,-20.1883
F3_Acq,F03,acq,49,3o,3,3,9556,correct,1,97,3,correct,1,3,correct,1,0,-9.6813,4.7824,-9.4774
F3_Acq,F03,acq,50,5n,5,1,63994,incorrect,-1,99,3,incorrect,-1,5,correct,1,1,14.1632,25.8634,-17.5575
F3_Acq,F03,acq,51,1p,1,1,68669,correct,1,101,1,correct,1,1,correct,1,0,2.6555,7.4215,6.3049
F3_Acq,F03,acq,52,2b,2,2,13731,correct,1,103,3,incorrect,-1,2,correct,1,0,-12.9449,18.9013,-33.143
F3_Acq,F03,acq,53,2c,2,2,11894,correct,1,105,2,correct,1,2,correct,1,0,-0.1969,22.0382,-9.8059
F3_Acq,F03,acq,54,4p,4,4,16736,correct,1,107,4,correct,1,4,correct,1,0,3.2102,-14.5991,-2.992
F3_Acq,F03,acq,55,1g,1,1,33269,correct,1,109,1,correct,1,1,correct,1,0,18.7478,7.7753,-32.6152
F3_Acq,F03,acq,56,3h,3,3,16904,correct,1,111,3,correct,1,3,correct,1,0,-1.347,1.6966,-22.4512
F3_Acq,F03,acq,57,2f,2,2,14232,correct,1,113,2,correct,1,2,correct,1,0,0.128,5.9174,-13.3193
F3_Acq,F03,acq,58,5m,5,5,26923,correct,1,115,1,incorrect,-1,5,correct,1,0,14.0632,-5.6833,29.5243
F3_Acq,F03,acq,59,4n,4,4,14566,correct,1,117,4,correct,1,4,correct,1,0,-5.952,-25.6751,-52.5949
F3_Acq,F03,acq,60,1i,1,1,15234,correct,1,119,1,correct,1,1,correct,1,0,16.2983,-9.1985,-27.2024
F3_Acq,F03,acq,61,2l,2,2,11060,correct,1,121,2,correct,1,2,correct,1,0,7.5457,-15.8061,-2.3925
F3_Acq,F03,acq,62,3b,3,3,15567,correct,1,123,3,correct,1,3,correct,1,0,-2.1121,8.0036,-26.2251
F3_Acq,F03,acq,63,4e,4,4,10392,correct,1,125,4,correct,1,4,correct,1,0,0.9124,-20.7315,13.6289
F3_Acq,F03,acq,64,5a,5,5,7719,correct,1,127,5,correct,1,5,correct,1,0,5.9147,-0.6609,-33.4546
F3_Acq,F03,acq,65,3a,3,3,20076,correct,1,129,3,correct,1,3,correct,1,0,6.7264,-3.4998,-36.4155
F3_Acq,F03,acq,66,4i,4,4,11895,correct,1,131,4,correct,1,4,correct,1,0,1.6767,21.2599,-15.5046
F3_Acq,F03,acq,67,3k,3,3,10058,correct,1,133,3,correct,1,3,correct,1,0,19.2009,-1.2776,-28.4164
F3_Acq,F03,acq,68,5j,5,5,18573,correct,1,135,5,correct,1,5,correct,1,0,13.1302,-7.4132,21.8414
F3_Acq,F03,acq,69,5c,5,5,21746,correct,1,137,5,correct,1,5,correct,1,0,4.9886,0.0222,-17.5987
F3_Acq,F03,acq,70,3c,3,3,13230,correct,1,139,3,correct,1,,,,,4.0554,-19.4568,-23.0114
F3_Acq,F03,acq,71,1e,1,1,19910,correct,1,141,1,correct,1,1,correct,1,0,-16.5701,-13.7703,4.4398
F3_Acq,F03,acq,72,5d,5,5,24418,correct,1,143,5,correct,1,5,correct,1,0,17.0775,5.3712,-29.3506
F3_Acq,F03,acq,73,1a,1,1,16068,correct,1,145,1,correct,1,1,correct,1,0,4.8461,-24.8879,-34.1348
F3_Acq,F03,acq,74,1o,1,1,16403,correct,1,147,1,correct,1,1,correct,1,0,2.9854,-10.3878,-21.8718
F3_Acq,F03,acq,75,5l,5,5,19743,correct,1,149,5,correct,1,5,correct,1,0,1.4927,-18.1449,-12.1534
F3_Acq,F03,acq,76,2i,2,2,12229,correct,1,151,2,correct,1,,,,,4.2233,-30.4293,-35.6492
F3_Acq,F03,acq,77,1l,1,1,14732,correct,1,153,1,correct,1,1,correct,1,0,-3.1699,17.0844,-25.4704
F3_Acq,F03,acq,78,1b,1,1,11060,correct,1,155,1,correct,1,,,,,-0.7361,8.1649,13.3678
F3_Acq,F03,acq,79,5f,5,5,19242,correct,1,157,5,correct,1,,,,,11.7717,-30.0601,-6.0894
F3_Acq,F03,acq,80,4d,4,4,15568,correct,1,159,4,correct,1,,,,,-1.8377,0.7189,-38.2984
F_4_Acq,F04,acq,1,1f,1,1,22915,correct,1,1,,,,,,,,8.9157,-4.3298,-14.3128
F_4_Acq,F04,acq,2,2m,2,2,27591,correct,1,3,,,,,,,,-0.9864,0.0988,-13.5812
F_4_Acq,F04,acq,3,5i,5,3,36608,incorrect,-1,5,,,,,,,,-2.8246,-3.7621,-0.4004
F_4_Acq,F04,acq,4,3g,3,2,20411,incorrect,-1,7,,,,,,,,24.2465,8.9834,29.6817
F_4_Acq,F04,acq,5,3l,3,4,25087,incorrect,-1,9,2,incorrect,-1,2,incorrect,-1,1,11.4022,3.1898,39.6055
F_4_Acq,F04,acq,6,1d,1,4,32601,incorrect,-1,11,1,correct,1,2,incorrect,-1,1,3.6034,6.9314,-8.9308
F_4_Acq,F04,acq,7,2d,2,3,26589,incorrect,-1,13,2,correct,1,4,incorrect,-1,1,16.4675,-5.9931,
F_4_Acq,F04,acq,8,4h,4,1,27257,incorrect,-1,15,,,,3,incorrect,-1,1,11.0606,3.5174,4.7606
F_4_Acq,F04,acq,9,5g,5,1,28426,incorrect,-1,17,3,incorrect,-1,3,incorrect,-1,1,5.4907,6.1819,24.7105
F_4_Acq,F04,acq,10,3j,3,2,36107,incorrect,-1,19,4,incorrect,-1,2,incorrect,-1,0,1.983,-4.489,6.5796
F_4_Acq,F04,acq,11,2k,2,4,48465,incorrect,-1,21,3,incorrect,-1,3,incorrect,-1,1,-0.3343,-5.4153,-10.5811
F_4_Acq,F04,acq,12,2j,2,3,38111,incorrect,-1,23,4,incorrect,-1,2,correct,1,1,3.0314,4.2041,6.1417
F_4_Acq,F04,acq,13,1m,1,2,41618,incorrect,-1,25,4,incorrect,-1,1,correct,1,1,-2.9828,14.7298,-7.4555
F_4_Acq,F04,acq,14,1k,1,1,29595,correct,1,27,2,incorrect,-1,3,incorrect,-1,1,6.4329,0.1432,-47.9208
F_4_Acq,F04,acq,15,2o,2,2,57649,correct,1,29,3,incorrect,-1,3,incorrect,-1,1,-8.2436,4.0471,17.9361
F_4_Acq,F04,acq,16,5h,5,3,34104,incorrect,-1,31,1,incorrect,-1,3,incorrect,-1,0,0.4708,-13.19,-13.7257
F_4_Acq,F04,acq,17,4o,4,3,33936,incorrect,-1,33,1,incorrect,-1,4,correct,1,1,-7.679,-9.0157,-28.9169
F_4_Acq,F04,acq,18,1h,1,3,33436,incorrect,-1,35,1,correct,1,3,incorrect,-1,0,2.228,1.3827,-11.8611
F_4_Acq,F04,acq,19,1n,1,3,29929,incorrect,-1,37,3,incorrect,-1,3,incorrect,-1,0,7.5632,-5.4012,-0.2523
F_4_Acq,F04,acq,20,4k,4,4,57482,correct,1,39,3,incorrect,-1,1,incorrect,-1,1,13.4252,-2.3601,-13.5763
F_4_Acq,F04,acq,21,5p,5,3,41117,incorrect,-1,41,3,incorrect,-1,1,incorrect,-1,1,14.8661,-4.0967,-21.2344
F_4_Acq,F04,acq,22,3d,3,2,35439,incorrect,-1,43,2,incorrect,-1,2,incorrect,-1,0,4.4225,-3.8148,-22.5284
F_4_Acq,F04,acq,23,4l,4,1,36609,incorrect,-1,45,4,correct,1,3,incorrect,-1,1,10.475,3.8666,-14.0849
F_4_Acq,F04,acq,24,3n,3,2,40449,incorrect,-1,47,2,incorrect,-1,2,incorrect,-1,0,3.5787,1.4797,
F_4_Acq,F04,acq,25,4a,4,3,73847,incorrect,-1,49,1,incorrect,-1,4,correct,1,1,9.4217,-3.3992,-22.781
F_4_Acq,F04,acq,26,5k,5,1,27925,incorrect,-1,51,3,incorrect,-1,1,incorrect,-1,0,4.6453,-5.3695,-40.1269
F_4_Acq,F04,acq,27,1c,1,3,56647,incorrect,-1,53,3,incorrect,-1,1,correct,1,1,12.9211,5.6502,-14.0854
F_4_Acq,F04,acq,28,2e,2,3,42286,incorrect,-1,55,2,correct,1,2,correct,1,1,-4.039,-21.7294,
F_4_Acq,F04,acq,29,2a,2,2,29261,correct,1,57,3,incorrect,-1,2,correct,1,0,-0.7604,5.1191,-12.1486
F_4_Acq,F04,acq,30,5b,5,1,36776,incorrect,-1,59,1,incorrect,-1,1,incorrect,-1,0,14.0469,-8.0295,31.9304
F_4_Acq,F04,acq,31,2g,2,2,30430,correct,1,61,2,correct,1,2,correct,1,0,-0.3864,-5.5226,-5.8738
F_4_Acq,F04,acq,32,2p,2,2,36441,correct,1,63,2,correct,1,2,correct,1,0,10.1935,-7.845,14.4402
F_4_Acq,F04,acq,33,2n,2,2,27424,correct,1,65,2,correct,1,2,correct,1,0,22.7055,-0.4659,-45.3208
F_4_Acq,F04,acq,34,4b,4,4,73345,correct,1,67,3,incorrect,-1,4,correct,1,0,30.2996,6.8563,20.2193
F_4_Acq,F04,acq,35,3f,3,2,25253,incorrect,-1,69,2,incorrect,-1,3,correct,1,1,13.3463,-4.8087,
F_4_Acq,F04,acq,36,5e,5,1,47797,incorrect,-1,71,1,incorrect,-1,1,incorrect,-1,0,1.6259,-9.7052,34.4407
F_4_Acq,F04,acq,37,1j,1,1,47128,correct,1,73,3,incorrect,-1,2,incorrect,-1,1,15.5637,2.8427,-16.607
F_4_Acq,F04,acq,38,4f,4,4,27090,correct,1,75,4,correct,1,4,correct,1,0,12.1976,0.0801,-5.4699
F_4_Acq,F04,acq,39,2h,2,2,32935,correct,1,77,2,correct,1,2,correct,1,0,18.3269,-1.4886,-3.3317
F_4_Acq,F04,acq,40,3m,3,3,52806,correct,1,79,2,incorrect,-1,2,incorrect,-1,1,19.1606,3.7004,-9.5601
F_4_Acq,F04,acq,41,4g,4,4,27925,correct,1,81,4,correct,1,4,correct,1,0,6.0391,-7.0205,-8.2446
F_4_Acq,F04,acq,42,5o,5,1,32601,incorrect,-1,83,1,incorrect,-1,5,correct,1,1,5.9875,-0.971,-19.9805
F_4_Acq,F04,acq,43,4m,4,4,23917,correct,1,85,4,correct,1,4,correct,1,0,12.0365,-19.2348,-67.2753
F_4_Acq,F04,acq,44,4c,4,4,24919,correct,1,87,4,correct,1,4,correct,1,0,12.9241,-3.2622,2.946
F_4_Acq,F04,acq,45,3i,3,2,78188,incorrect,-1,89,3,correct,1,2,incorrect,-1,0,5.1848,16.467,-3.6215
F_4_Acq,F04,acq,46,3e,3,2,47629,incorrect,-1,91,2,incorrect,-1,2,incorrect,-1,0,8.5373,3.6107,-30.3943
F_4_Acq,F04,acq,47,4j,4,4,24753,correct,1,93,4,correct,1,4,correct,1,0,17.9638,3.2228,-20.3266
F_4_Acq,F04,acq,48,3p,3,2,30764,incorrect,-1,95,2,incorrect,-1,3,correct,1,1,-0.2212,10.7896,-24.619
F_4_Acq,F04,acq,49,3o,3,3,13397,correct,1,97,2,incorrect,-1,3,correct,1,0,-2.8535,-12.3558,20.3798
F_4_Acq,F04,acq,50,5n,5,5,61824,correct,1,99,1,incorrect,-1,1,incorrect,-1,1,3.4136,-1.459,10.9139
F_4_Acq,F04,acq,51,1p,1,2,66833,incorrect,-1,101,1,correct,1,5,incorrect,-1,1,-5.5611,-7.7055,15.1652
F_4_Acq,F04,acq,52,2b,2,2,27925,correct,1,103,2,correct,1,2,correct,1,0,10.4183,-1.9407,26.3474
F_4_Acq,F04,acq,53,2c,2,2,17739,correct,1,105,2,correct,1,2,correct,1,0,-7.8579,8.9922,7.4056
F_4_Acq,F04,acq,54,4p,4,4,21078,correct,1,107,4,correct,1,4,correct,1,0,1.8476,10.5933,11.5823
F_4_Acq,F04,acq,55,1g,1,5,67668,incorrect,-1,109,2,incorrect,-1,5,incorrect,-1,0,-4.6442,6.0117,-31.404
F_4_Acq,F04,acq,56,3h,3,3,69504,correct,1,111,3,correct,1,3,correct,1,0,-3.4386,-2.4321,-27.2974
F_4_Acq,F04,acq,57,2f,2,2,33269,correct,1,113,2,correct,1,2,correct,1,0,7.2428,-8.2093,-31.7863
F_4_Acq,F04,acq,58,5m,5,1,51805,incorrect,-1,115,5,correct,1,5,correct,1,1,18.811,-2.647,14.4551
F_4_Acq,F04,acq,59,4n,4,4,29094,correct,1,117,4,correct,1,4,correct,1,0,6.7816,-6.7014,44.4102
F_4_Acq,F04,acq,60,1i,1,5,77186,incorrect,-1,119,5,incorrect,-1,1,correct,1,1,12.0212,5.9889,4.6371
F_4_Acq,F04,acq,61,2l,2,2,23417,correct,1,121,2,correct,1,2,correct,1,0,1.2397,8.8948,2.5329
F_4_Acq,F04,acq,62,3b,3,3,37610,correct,1,123,3,correct,1,3,correct,1,0,23.6647,-0.342,-11.0012
F_4_Acq,F04,acq,63,4e,4,4,13899,correct,1,125,4,correct,1,4,correct,1,0,5.9038,8.0592,7.7353
F_4_Acq,F04,acq,64,5a,5,5,25086,correct,1,127,1,incorrect,-1,5,correct,1,0,-1.2875,3.6545,-7.4227
F_4_Acq,F04,acq,65,3a,3,3,25922,correct,1,129,3,correct,1,3,correct,1,0,-6.1643,7.3643,-16.5342
F_4_Acq,F04,acq,66,4i,4,4,21246,correct,1,131,4,correct,1,4,correct,1,0,-9.7228,-12.2745,-16.5549
F_4_Acq,F04,acq,67,3k,3,3,31599,correct,1,133,3,correct,1,3,correct,1,0,-4.4277,-1.2512,15.3041
F_4_Acq,F04,acq,68,5j,5,5,50802,correct,1,135,5,correct,1,5,correct,1,0,15.8885,17.0508,-21.9455
F_4_Acq,F04,acq,69,5c,5,5,56313,correct,1,137,5,correct,1,5,correct,1,0,13.7942,1.1519,-5.4621
F_4_Acq,F04,acq,70,3c,3,3,29428,correct,1,139,3,correct,1,,,,,-8.5452,9.7449,-9.707
F_4_Acq,F04,acq,71,1e,1,1,36776,correct,1,141,5,incorrect,-1,1,correct,1,0,0.3301,2.1955,-3.0036
F_4_Acq,F04,acq,72,5d,5,5,24251,correct,1,143,5,correct,1,5,correct,1,0,-2.6763,6.7886,-12.9382
F_4_Acq,F04,acq,73,1a,1,1,51136,correct,1,145,1,correct,1,1,correct,1,0,4.2254,21.2669,-1.3903
F_4_Acq,F04,acq,74,1o,1,1,45626,correct,1,147,1,correct,1,1,correct,1,0,-4.9564,-0.5841,-24.3236
F_4_Acq,F04,acq,75,5l,5,5,67334,correct,1,149,5,correct,1,5,correct,1,0,11.9712,-17.6616,-38.3613
F_4_Acq,F04,acq,76,2i,2,2,25587,correct,1,151,2,correct,1,,,,,2.1933,-11.7052,21.8781
F_4_Acq,F04,acq,77,1l,1,1,26256,correct,1,153,1,correct,1,1,correct,1,0,-7.6909,5.456,17.7508
F_4_Acq,F04,acq,78,1b,1,1,41618,correct,1,155,1,correct,1,,,,,4.1363,8.511,-12.1316
F_4_Acq,F04,acq,79,5f,5,5,20578,correct,1,157,5,correct,1,,,,,2.0498,-1.6243,-13.9182
F_4_Acq,F04,acq,80,4d,4,4,17405,correct,1,159,4,correct,1,,,,,8.8041,-0.1392,21.6836
F5_Acq,F05,acq,1,1f,1,1,13731,correct,1,1,,,,,,,,0.1196,-11.0474,-27.701
F5_Acq,F05,acq,2,2m,2,2,15234,correct,1,3,,,,,,,,6.9464,14.27,-13.3667
F5_Acq,F05,acq,3,5i,5,3,21580,incorrect,-1,5,,,,,,,,-1.6597,-4.3321,-14.6851
F5_Acq,F05,acq,4,3g,3,3,15902,correct,1,7,,,,,,,,1.4065,-4.873,-28.1638
F5_Acq,F05,acq,5,3l,3,3,24418,correct,1,9,3,correct,1,3,correct,1,0,3.4424,7.865,-10.351
F5_Acq,F05,acq,6,1d,1,4,17572,incorrect,-1,11,1,correct,1,4,incorrect,-1,0,9.1472,-2.7238,7.5511
F5_Acq,F05,acq,7,2d,2,2,13397,correct,1,13,2,correct,1,2,correct,1,0,-5.9429,4.6522,-10.1169
F5_Acq,F05,acq,8,4h,4,4,17572,correct,1,15,,,,4,correct,1,0,-12.8293,-1.7187,-2.9886
F5_Acq,F05,acq,9,5g,5,3,23583,incorrect,-1,17,3,incorrect,-1,1,incorrect,-1,1,-4.8669,-24.1547,-3.8558
F5_Acq,F05,acq,10,3j,3,3,27591,correct,1,19,3,correct,1,3,correct,1,0,4.4895,-6.8989,10.6428
F5_Acq,F05,acq,11,2k,2,2,13397,correct,1,21,2,correct,1,2,correct,1,0,2.9896,-21.4381,4.0691
F5_Acq,F05,acq,12,2j,2,2,11728,correct,1,23,2,correct,1,2,correct,1,0,5.4346,5.0247,8.581
F5_Acq,F05,acq,13,1m,1,4,22915,incorrect,-1,25,4,incorrect,-1,3,incorrect,-1,1,12.2587,12.8633,19.8329
F5_Acq,F05,acq,14,1k,1,3,11059,incorrect,-1,27,4,incorrect,-1,3,incorrect,-1,0,-11.5944,-0.8271,24.589
F5_Acq,F05,acq,15,2o,2,2,13731,correct,1,29,2,correct,1,2,correct,1,0,41.292,-6.2793,-18.8405
F5_Acq,F05,acq,16,5h,5,1,17572,incorrect,-1,31,3,incorrect,-1,3,incorrect,-1,1,14.8302,-7.2493,6.1077
F5_Acq,F05,acq,17,4o,4,4,25086,correct,1,33,4,correct,1,4,correct,1,0,26.5033,-13.1617,11.4026
F5_Acq,F05,acq,18,1h,1,3,17906,incorrect,-1,35,3,incorrect,-1,5,incorrect,-1,1,-0.0466,-25.3336,4.368
F5_Acq,F05,acq,19,1n,1,5,14232,incorrect,-1,37,3,incorrect,-1,1,correct,1,1,-1.4248,-4.7061,8.699
F5_Acq,F05,acq,20,4k,4,4,12562,correct,1,39,4,correct,1,4,correct,1,0,-10.564,-11.365,-6.1334
F5_Acq,F05,acq,21,5p,5,3,31599,incorrect,-1,41,1,incorrect,-1,1,incorrect,-1,1,,19.1579,-4.5099
F5_Acq,F05,acq,22,3d,3,3,25921,correct,1,43,3,correct,1,1,incorrect,-1,1,-4.9763,,8.4124
F5_Acq,F05,acq,23,4l,4,4,12395,correct,1,45,4,correct,1,4,correct,1,0,2.8854,10.5968,16.6511
F5_Acq,F05,acq,24,3n,3,1,33770,incorrect,-1,47,3,correct,1,3,correct,1,1,-4.3938,-3.4823,-7.9976
F5_Acq,F05,acq,25,4a,4,4,15568,correct,1,49,4,correct,1,4,correct,1,0,0.2741,-12.4355,-7.3007
F5_Acq,F05,acq,26,5k,5,1,29261,incorrect,-1,51,3,incorrect,-1,5,correct,1,1,-7.9118,-26.6392,-17.1584
F5_Acq,F05,acq,27,1c,1,1,25253,correct,1,53,5,incorrect,-1,1,correct,1,0,8.7757,-15.4264,-1.7972
F5_Acq,F05,acq,28,2e,2,2,13564,correct,1,55,2,correct,1,2,correct,1,0,-0.3687,-12.1121,-5.3035
F5_Acq,F05,acq,29,2a,2,2,11560,correct,1,57,2,correct,1,2,correct,1,0,-2.6321,-0.7579,9.966
F5_Acq,F05,acq,30,5b,5,5,25086,correct,1,59,1,incorrect,-1,5,correct,1,0,-7.6509,-16.1734,9.6215
F5_Acq,F05,acq,31,2g,2,2,12896,correct,1,61,2,correct,1,2,correct,1,0,-3.2194,-34.557,-12.1594
F5_Acq,F05,acq,32,2p,2,2,11727,correct,1,63,2,correct,1,2,correct,1,0,-3.5263,2.6037,-9.9467
F5_Acq,F05,acq,33,2n,2,2,8889,correct,1,65,2,correct,1,2,correct,1,0,-1.5379,8.6024,-16.8672
F5_Acq,F05,acq,34,4b,4,4,16236,correct,1,67,4,correct,1,4,correct,1,0,11.811,6.1966,0.3952
F5_Acq,F05,acq,35,3f,3,3,28092,correct,1,69,1,incorrect,-1,3,correct,1,0,-1.6758,27.3514,19.2067
F5_Acq,F05,acq,36,5e,5,5,22080,correct,1,71,5,correct,1,5,correct,1,0,6.7788,-14.1312,-3.2938
F5_Acq,F05,acq,37,1j,1,1,15902,correct,1,73,1,correct,1,1,correct,1,0,-6.0119,-5.4982,0.5762
F5_Acq,F05,acq,38,4f,4,4,13564,correct,1,75,4,correct,1,4,correct,1,0,22.4827,-16.7474,-17.0156
F5_Acq,F05,acq,39,2h,2,2,11060,correct,1,77,2,correct,1,2,correct,1,0,4.4599,3.9478,-11.7277
F5_Acq,F05,acq,40,3m,3,3,34270,correct,1,79,3,correct,1,3,correct,1,0,-8.5482,0.1317,-4.7234
F5_Acq,F05,acq,41,4g,4,4,11393,correct,1,81,4,correct,1,4,correct,1,0,-21.9815,-1.9648,-7.0358
F5_Acq,F05,acq,42,5o,5,5,25086,correct,1,83,5,correct,1,5,correct,1,0,-1.9523,-9.5395,2.9469
F5_Acq,F05,acq,43,4m,4,4,11727,correct,1,85,4,correct,1,4,correct,1,0,15.3435,-3.2223,19.068
F5_Acq,F05,acq,44,4c,4,4,33770,correct,1,87,4,correct,1,4,correct,1,0,-1.2491,-26.5875,-2.4802
F5_Acq,F05,acq,45,3i,3,3,21579,correct,1,89,3,correct,1,3,correct,1,0,12.4383,-25.1766,-6.53
F5_Acq,F05,acq,46,3e,3,3,22248,correct,1,91,3,correct,1,3,correct,1,0,4.1234,-13.448,-13.2158
F5_Acq,F05,acq,47,4j,4,4,11560,correct,1,93,4,correct,1,4,correct,1,0,-8.2695,-15.8209,21.1992
F5_Acq,F05,acq,48,3p,3,3,13564,correct,1,95,3,correct,1,3,correct,1,0,11.7111,3.484,-12.1292
F5_Acq,F05,acq,49,3o,3,3,8889,correct,1,97,3,correct,1,3,correct,1,0,-8.9889,-4.6244,-0.6098
F5_Acq,F05,acq,50,5n,5,5,21579,correct,1,99,5,correct,1,5,correct,1,0,,18.5719,
F5_Acq,F05,acq,51,1p,1,1,16570,correct,1,101,1,correct,1,1,correct,1,0,8.5784,,7.6028
F5_Acq,F05,acq,52,2b,2,2,12896,correct,1,103,2,correct,1,2,correct,1,0,-1.3569,-19.2702,-5.0244
F5_Acq,F05,acq,53,2c,2,2,7720,correct,1,105,2,correct,1,2,correct,1,0,-8.3629,,1.5359
F5_Acq,F05,acq,54,4p,4,4,19576,correct,1,107,4,correct,1,4,correct,1,0,-13.4761,1.8084,-13.4254
F5_Acq,F05,acq,55,1g,1,1,23583,correct,1,109,1,correct,1,1,correct,1,0,12.2363,3.149,13.9599
F5_Acq,F05,acq,56,3h,3,3,16570,correct,1,111,3,correct,1,3,correct,1,0,-20.3324,-27.3292,0.6515
F5_Acq,F05,acq,57,2f,2,2,10058,correct,1,113,2,correct,1,2,correct,1,0,0.1424,8.5735,-24.985
F5_Acq,F05,acq,58,5m,5,5,19575,correct,1,115,5,correct,1,5,correct,1,0,3.8195,1.079,-18.7838
F5_Acq,F05,acq,59,4n,4,4,8722,correct,1,117,4,correct,1,4,correct,1,0,2.9127,16.2869,-28.6923
F5_Acq,F05,acq,60,1i,1,1,22915,correct,1,119,1,correct,1,1,correct,1,0,,-2.6781,
F5_Acq,F05,acq,61,2l,2,2,14900,correct,1,121,2,correct,1,2,correct,1,0,-1.6458,,3.1875
F5_Acq,F05,acq,62,3b,3,3,9723,correct,1,123,3,correct,1,3,correct,1,0,-12.915,16.2951,-11.7465
F5_Acq,F05,acq,63,4e,4,4,13230,correct,1,125,4,correct,1,4,correct,1,0,-1.8895,8.0262,-10.6827
F5_Acq,F05,acq,64,5a,5,5,16737,correct,1,127,5,correct,1,5,correct,1,0,-1.6645,-31.44,-6.4624
F5_Acq,F05,acq,65,3a,3,3,22081,correct,1,129,3,correct,1,3,correct,1,0,6.1012,-9.7104,-7.3994
F5_Acq,F05,acq,66,4i,4,4,10558,correct,1,131,4,correct,1,4,correct,1,0,,-2.8125,-4.2473
F5_Acq,F05,acq,67,3k,3,3,11059,correct,1,133,3,correct,1,3,correct,1,0,-5.7116,,29.648
F5_Acq,F05,acq,68,5j,5,5,18573,correct,1,135,5,correct,1,5,correct,1,0,4.2345,-20.5808,-4.2896
F5_Acq,F05,acq,69,5c,5,5,8889,correct,1,137,5,correct,1,5,correct,1,0,4.1803,9.5796,-6.6074
F5_Acq,F05,acq,70,3c,3,3,16904,correct,1,139,3,correct,1,,,,,3.8392,12.1219,16.1389
F5_Acq,F05,acq,71,1e,1,1,19576,correct,1,141,1,correct,1,1,correct,1,0,-15.5109,-3.0904,-2.7505
F5_Acq,F05,acq,72,5d,5,5,17071,correct,1,143,5,correct,1,5,correct,1,0,-11.1504,9.1324,-9.635
F5_Acq,F05,acq,73,1a,1,1,22916,correct,1,145,1,correct,1,1,correct,1,0,12.8234,0.5891,8.1869
F5_Acq,F05,acq,74,1o,1,1,14733,correct,1,147,1,correct,1,1,correct,1,0,-3.3131,2.5886,12.3627
F5_Acq,F05,acq,75,5l,5,5,15568,correct,1,149,5,correct,1,5,correct,1,0,-13.7023,4.9578,15.3209
F5_Acq,F05,acq,76,2i,2,2,14566,correct,1,151,2,correct,1,,,,,7.1205,21.9404,0.1826
F5_Acq,F05,acq,77,1l,1,1,15401,correct,1,153,1,correct,1,1,correct,1,0,-10.5655,-9.3572,-6.7965
F5_Acq,F05,acq,78,1b,1,1,10892,correct,1,155,1,correct,1,,,,,-3.619,9.2099,5.9551
F5_Acq,F05,acq,79,5f,5,5,20243,correct,1,157,5,correct,1,,,,,-4.3108,20.9771,5.3543
F5_Acq,F05,acq,80,4d,4,4,10058,correct,1,159,4,correct,1,,,,,3.2777,3.8548,-9.4299
F6_Acq,F06,acq,1,1f,1,4,19909,incorrect,-1,1,,,,,,,,3.9039,22.0197,-10.0183
F6_Acq,F06,acq,2,2m,2,3,16737,incorrect,-1,3,,,,,,,,-16.3915,1.2633,4.3243
F6_Acq,F06,acq,3,5i,5,1,17405,incorrect,-1,5,,,,,,,,-10.014,9.0094,-31.4376
F6_Acq,F06,acq,4,3g,3,1,10893,incorrect,-1,7,,,,,,,,4.1021,4.4982,-23.8749
F6_Acq,F06,acq,5,3l,3,1,12896,incorrect,-1,9,1,incorrect,-1,3,correct,1,1,6.7192,-0.7245,-29.0267
F6_Acq,F06,acq,6,1d,1,1,12395,correct,1,11,4,incorrect,-1,1,correct,1,0,14.4227,-5.7192,0.9986
F6_Acq,F06,acq,7,2d,2,2,8221,correct,1,13,3,incorrect,-1,4,incorrect,-1,1,9.8864,-29.2913,6.7864
F6_Acq,F06,acq,8,4h,4,3,12896,incorrect,-1,15,,,,5,incorrect,-1,1,0.1336,-10.5858,-32.0821
F6_Acq,F06,acq,9,5g,5,3,16904,incorrect,-1,17,1,incorrect,-1,1,incorrect,-1,1,9.5246,-5.605,-9.6186
F6_Acq,F06,acq,10,3j,3,3,17405,correct,1,19,1,incorrect,-1,4,incorrect,-1,1,-14.806,-9.7367,-31.1511
F6_Acq,F06,acq,11,2k,2,4,25253,incorrect,-1,21,2,correct,1,2,correct,1,1,-11.6571,-11.6803,18.2874
F6_Acq,F06,acq,12,2j,2,2,26088,correct,1,23,4,incorrect,-1,4,incorrect,-1,1,-3.3814,-7.7775,-23.9485
F6_Acq,F06,acq,13,1m,1,1,18073,correct,1,25,1,correct,1,3,incorrect,-1,1,-5.8923,-7.9804,-24.6416
F6_Acq,F06,acq,14,1k,1,3,26589,incorrect,-1,27,1,correct,1,1,correct,1,1,6.2215,-3.3085,-29.9428
F6_Acq,F06,acq,15,2o,2,4,21746,incorrect,-1,29,2,correct,1,1,incorrect,-1,1,7.1939,-13.1278,-11.4287
F6_Acq,F06,acq,16,5h,5,1,24586,incorrect,-1,31,3,incorrect,-1,5,correct,1,1,-1.3234,-2.8662,-12.1818
F6_Acq,F06,acq,17,4o,4,5,22581,incorrect,-1,33,3,incorrect,-1,5,incorrect,-1,0,-7.3891,-11.7374,-25.9634
F6_Acq,F06,acq,18,1h,1,1,21746,correct,1,35,3,incorrect,-1,5,incorrect,-1,1,-2.5747,-8.9815,-34.7715
F6_Acq,F06,acq,19,1n,1,5,23750,incorrect,-1,37,1,correct,1,1,correct,1,1,-7.2759,-22.5162,-23.1167
F6_Acq,F06,acq,20,4k,4,5,19074,incorrect,-1,39,5,incorrect,-1,5,incorrect,-1,0,-16.3468,6.1444,-23.275
F6_Acq,F06,acq,21,5p,5,5,11728,correct,1,41,1,incorrect,-1,2,incorrect,-1,1,5.2541,8.4726,-46.0615
F6_Acq,F06,acq,22,3d,3,4,19409,incorrect,-1,43,3,correct,1,5,incorrect,-1,1,2.3639,-13.0084,-11.6744
F6_Acq,F06,acq,23,4l,4,5,21412,incorrect,-1,45,5,incorrect,-1,3,incorrect,-1,1,-20.6332,-16.4887,-7.9855
F6_Acq,F06,acq,24,3n,3,5,18574,incorrect,-1,47,4,incorrect,-1,3,correct,1,1,-2.6775,-2.15,-63.3974
F6_Acq,F06,acq,25,4a,4,3,17905,incorrect,-1,49,5,incorrect,-1,4,correct,1,1,-13.7234,2.1119,-34.3374
F6_Acq,F06,acq,26,5k,5,2,28759,incorrect,-1,51,5,correct,1,5,correct,1,1,-2.4659,-9.6201,-27.1225
F6_Acq,F06,acq,27,1c,1,1,18073,correct,1,53,5,incorrect,-1,2,incorrect,-1,1,6.083,-18.4546,-38.5768
F6_Acq,F06,acq,28,2e,2,1,24251,incorrect,-1,55,4,incorrect,-1,3,incorrect,-1,1,-12.8629,-7.8405,-13.191
F6_Acq,F06,acq,29,2a,2,3,27590,incorrect,-1,57,1,incorrect,-1,4,incorrect,-1,1,5.9455,-31.478,-24.302
F6_Acq,F06,acq,30,5b,5,5,30096,correct,1,59,2,incorrect,-1,5,correct,1,0,2.3268,-22.8418,-46.2549
F6_Acq,F06,acq,31,2g,2,4,15735,incorrect,-1,61,3,incorrect,-1,3,incorrect,-1,1,-12.193,9.7038,-34.6685
F6_Acq,F06,acq,32,2p,2,3,17572,incorrect,-1,63,4,incorrect,-1,2,correct,1,1,-22.7451,13.7528,-33.7583
F6_Acq,F06,acq,33,2n,2,2,39280,correct,1,65,3,incorrect,-1,5,incorrect,-1,1,4.992,-1.3874,-55.8702
F6_Acq,F06,acq,34,4b,4,4,17906,correct,1,67,3,incorrect,-1,3,incorrect,-1,1,-10.0646,23.624,-6.9615
F6_Acq,F06,acq,35,3f,3,3,18240,correct,1,69,5,incorrect,-1,4,incorrect,-1,1,2.4073,-13.1516,-14.6339
F6_Acq,F06,acq,36,5e,5,5,19241,correct,1,71,5,correct,1,1,incorrect,-1,1,6.1793,-5.9341,-27.5791
F6_Acq,F06,acq,37,1j,1,2,18240,incorrect,-1,73,1,correct,1,2,incorrect,-1,0,-12.9518,-29.1885,-19.561
F6_Acq,F06,acq,38,4f,4,3,18240,incorrect,-1,75,4,correct,1,1,incorrect,-1,1,-16.0969,3.4111,-24.5926
F6_Acq,F06,acq,39,2h,2,5,24919,incorrect,-1,77,2,correct,1,5,incorrect,-1,0,1.6998,5.263,-11.0071
F6_Acq,F06,acq,40,3m,3,4,28426,incorrect,-1,79,3,correct,1,4,incorrect,-1,0,-9.572,-19.0086,-10.4524
F6_Acq,F06,acq,41,4g,4,1,16737,incorrect,-1,81,3,incorrect,-1,2,incorrect,-1,1,-19.3638,-11.4718,-5.6562
F6_Acq,F06,acq,42,5o,5,1,13898,incorrect,-1,83,5,correct,1,1,incorrect,-1,0,-2.154,-3.4905,-12.7145
F6_Acq,F06,acq,43,4m,4,2,18073,incorrect,-1,85,3,incorrect,-1,2,incorrect,-1,0,0.5018,-5.0848,-36.3302
F6_Acq,F06,acq,44,4c,4,2,24084,incorrect,-1,87,2,incorrect,-1,5,incorrect,-1,1,0.5887,11.9636,-52.6787
F6_Acq,F06,acq,45,3i,3,4,30931,incorrect,-1,89,4,incorrect,-1,5,incorrect,-1,1,-1.5548,12.9614,-18.8836
F6_Acq,F06,acq,46,3e,3,5,16904,incorrect,-1,91,4,incorrect,-1,1,incorrect,-1,1,-12.6019,-1.9605,-34.8966
F6_Acq,F06,acq,47,4j,4,5,33435,incorrect,-1,93,2,incorrect,-1,4,correct,1,1,2.1826,-7.5805,-14.6324
F6_Acq,F06,acq,48,3p,3,1,27925,incorrect,-1,95,5,incorrect,-1,1,incorrect,-1,0,-9.9319,-1.8101,-12.8602
F6_Acq,F06,acq,49,3o,3,1,15735,incorrect,-1,97,1,incorrect,-1,3,correct,1,1,-8.0209,-19.3301,-16.1989
F6_Acq,F06,acq,50,5n,5,1,23751,incorrect,-1,99,1,incorrect,-1,1,incorrect,-1,0,3.8263,-10.7542,20.1848
F6_Acq,F06,acq,51,1p,1,2,23416,incorrect,-1,101,2,incorrect,-1,2,incorrect,-1,0,-26.7046,-10.5651,-6.891
F6_Acq,F06,acq,52,2b,2,5,20911,incorrect,-1,103,5,incorrect,-1,5,incorrect,-1,0,-9.3544,-7.0408,-10.7604
F6_Acq,F06,acq,53,2c,2,5,17739,incorrect,-1,105,5,incorrect,-1,4,incorrect,-1,1,1.5661,-5.5864,-4.5855
F6_Acq,F06,acq,54,4p,4,4,14065,correct,1,107,5,incorrect,-1,5,incorrect,-1,1,-11.1957,-20.0321,24.6753
F6_Acq,F06,acq,55,1g,1,2,18073,incorrect,-1,109,2,incorrect,-1,1,correct,1,1,11.1744,3.0416,-1.2031
F6_Acq,F06,acq,56,3h,3,3,18240,correct,1,111,1,incorrect,-1,5,incorrect,-1,1,6.3371,-17.3034,4.7129
F6_Acq,F06,acq,57,2f,2,2,27424,correct,1,113,5,incorrect,-1,4,incorrect,-1,1,-0.7834,-1.062,-18.4331
F6_Acq,F06,acq,58,5m,5,1,15234,incorrect,-1,115,1,incorrect,-1,2,incorrect,-1,1,0.7021,-7.9313,-11.2275
F6_Acq,F06,acq,59,4n,4,5,32768,incorrect,-1,117,4,correct,1,3,incorrect,-1,1,2.0846,-14.3748,-18.1163
F6_Acq,F06,acq,60,1i,1,1,15067,correct,1,119,2,incorrect,-1,1,correct,1,0,-5.3166,-21.6136,-30.4798
F6_Acq,F06,acq,61,2l,2,4,26255,incorrect,-1,121,2,correct,1,3,incorrect,-1,1,-1.7147,-35.3607,-15.6012
F6_Acq,F06,acq,62,3b,3,5,18573,incorrect,-1,123,3,correct,1,4,incorrect,-1,1,-10.238,-26.3305,-14.0267
F6_Acq,F06,acq,63,4e,4,3,43120,incorrect,-1,125,5,incorrect,-1,4,correct,1,1,12.6983,-3.3503,-10.6725
F6_Acq,F06,acq,64,5a,5,2,26255,incorrect,-1,127,1,incorrect,-1,1,incorrect,-1,1,4.6901,12.1859,-3.1776
F6_Acq,F06,acq,65,3a,3,4,32100,incorrect,-1,129,5,incorrect,-1,3,correct,1,1,0.0849,-7.6867,1.928
F6_Acq,F06,acq,66,4i,4,4,21245,correct,1,131,3,incorrect,-1,4,correct,1,0,14.3129,-3.9413,-16.9441
F6_Acq,F06,acq,67,3k,3,3,16737,correct,1,133,4,incorrect,-1,2,incorrect,-1,1,4.7465,4.4157,-20.2667
F6_Acq,F06,acq,68,5j,5,1,20244,incorrect,-1,135,2,incorrect,-1,2,incorrect,-1,1,-5.5266,2.8935,-35.3175
F6_Acq,F06,acq,69,5c,5,2,21579,incorrect,-1,137,1,incorrect,-1,4,incorrect,-1,1,-11.6803,-3.7087,-52.0005
F6_Acq,F06,acq,70,3c,3,2,20411,incorrect,-1,139,3,correct,1,,,,,7.3023,-12.3459,-21.5519
F6_Acq,F06,acq,71,1e,1,1,17906,correct,1,141,1,correct,1,1,correct,1,0,0.2839,-5.4246,-38.4469
F6_Acq,F06,acq,72,5d,5,4,31432,incorrect,-1,143,2,incorrect,-1,2,incorrect,-1,1,-23.2083,-36.8698,-37.9016
F6_Acq,F06,acq,73,1a,1,1,25587,correct,1,145,1,correct,1,3,incorrect,-1,1,5.2199,5.3806,-44.2102
F6_Acq,F06,acq,74,1o,1,3,23416,incorrect,-1,147,1,correct,1,2,incorrect,-1,1,2.4591,18.545,-43.6466
F6_Acq,F06,acq,75,5l,5,2,19409,incorrect,-1,149,4,incorrect,-1,1,incorrect,-1,1,-3.0591,-19.3649,-19.5684
F6_Acq,F06,acq,76,2i,2,3,17905,incorrect,-1,151,4,incorrect,-1,,,,,3.1767,-21.6982,-16.537
F6_Acq,F06,acq,77,1l,1,2,20744,incorrect,-1,153,3,incorrect,-1,1,correct,1,1,-4.1952,-12.3312,-29.242
F6_Acq,F06,acq,78,1b,1,1,15401,correct,1,155,2,incorrect,-1,,,,,-10.5287,-19.2731,-15.6062
F6_Acq,F06,acq,79,5f,5,1,15568,incorrect,-1,157,2,incorrect,-1,,,,,4.0863,24.1741,-21.377
F6_Acq,F06,acq,80,4d,4,4,34772,correct,1,159,4,correct,1,,,,,5.9989,-4.1211,-44.3694
F7_Acq,F07,acq,1,1f,1,1,20411,correct,1,1,,,,,,,,247.1283,0.9725,-29.6013
F7_Acq,F07,acq,2,2m,2,1,12562,incorrect,-1,3,,,,,,,,235.5155,-15.0009,-15.6855
F7_Acq,F07,acq,3,5i,5,3,18574,incorrect,-1,5,,,,,,,,-169.9047,4.4518,6.8705
F7_Acq,F07,acq,4,3g,3,3,18407,correct,1,7,,,,,,,,33.5273,-19.7611,-22.0667
F7_Acq,F07,acq,5,3l,3,3,24753,correct,1,9,3,correct,1,3,correct,1,0,141.1225,24.8674,-13.2007
F7_Acq,F07,acq,6,1d,1,4,17572,incorrect,-1,11,1,correct,1,4,incorrect,-1,0,-193.8149,16.8203,-8.7197
F7_Acq,F07,acq,7,2d,2,5,20912,incorrect,-1,13,1,incorrect,-1,5,incorrect,-1,0,-24.5385,-1.1475,-12.2322
F7_Acq,F07,acq,8,4h,4,2,17572,incorrect,-1,15,,,,5,incorrect,-1,1,91.0256,-6.1659,-21.3013
F7_Acq,F07,acq,9,5g,5,2,27925,incorrect,-1,17,3,incorrect,-1,3,incorrect,-1,1,163.2773,-16.5716,1.4301
F7_Acq,F07,acq,10,3j,3,3,15736,correct,1,19,3,correct,1,4,incorrect,-1,1,132.0755,-1.8768,-38.7424
F7_Acq,F07,acq,11,2k,2,5,20076,incorrect,-1,21,5,incorrect,-1,2,correct,1,1,31.4159,2.0801,-35.38
F7_Acq,F07,acq,12,2j,2,2,16737,correct,1,23,5,incorrect,-1,2,correct,1,0,92.7794,-0.9184,-23.6881
F7_Acq,F07,acq,13,1m,1,4,16570,incorrect,-1,25,4,incorrect,-1,1,correct,1,1,-146.7809,-15.9513,-5.6373
F7_Acq,F07,acq,14,1k,1,1,17739,correct,1,27,4,incorrect,-1,3,incorrect,-1,1,-67.8499,-0.5721,-16.2647
F7_Acq,F07,acq,15,2o,2,2,20244,correct,1,29,2,correct,1,2,correct,1,0,-160.1344,-7.0791,12.7479
F7_Acq,F07,acq,16,5h,5,3,27424,incorrect,-1,31,2,incorrect,-1,5,correct,1,1,-97.6676,16.2524,-22.7214
F7_Acq,F07,acq,17,4o,4,5,21580,incorrect,-1,33,2,incorrect,-1,3,incorrect,-1,1,5.4142,7.5448,-24.4008
F7_Acq,F07,acq,18,1h,1,3,15735,incorrect,-1,35,1,correct,1,4,incorrect,-1,1,-277.5582,2.8045,-44.3613
F7_Acq,F07,acq,19,1n,1,4,27425,incorrect,-1,37,3,incorrect,-1,3,incorrect,-1,1,-66.3924,-4.7545,-18.3315
F7_Acq,F07,acq,20,4k,4,3,33435,incorrect,-1,39,5,incorrect,-1,3,incorrect,-1,0,-218.1053,-23.2247,-26.5927
F7_Acq,F07,acq,21,5p,5,5,26255,correct,1,41,3,incorrect,-1,3,incorrect,-1,1,-89.4952,-6.687,-41.9465
F7_Acq,F07,acq,22,3d,3,4,21914,incorrect,-1,43,3,correct,1,2,incorrect,-1,1,133.052,-7.0872,-11.5656
F7_Acq,F07,acq,23,4l,4,3,58316,incorrect,-1,45,3,incorrect,-1,5,incorrect,-1,1,75.0009,-2.2966,-22.3386
F7_Acq,F07,acq,24,3n,3,2,43788,incorrect,-1,47,4,incorrect,-1,4,incorrect,-1,1,-102.2055,-12.6127,-23.2273
F7_Acq,F07,acq,25,4a,4,5,17071,incorrect,-1,49,3,incorrect,-1,4,correct,1,1,-557.7099,-7.3666,
F7_Acq,F07,acq,26,5k,5,3,26422,incorrect,-1,51,5,correct,1,3,incorrect,-1,0,224.8003,-8.9268,-20.1495
F7_Acq,F07,acq,27,1c,1,3,22248,incorrect,-1,53,4,incorrect,-1,3,incorrect,-1,0,134.5593,-16.8026,-18.1919
F7_Acq,F07,acq,28,2e,2,2,26255,correct,1,55,2,correct,1,1,incorrect,-1,1,216.7715,-11.863,-8.6242
F7_Acq,F07,acq,29,2a,2,1,34271,incorrect,-1,57,2,correct,1,5,incorrect,-1,1,-4.0017,-17.8794,-4.4001
F7_Acq,F07,acq,30,5b,5,3,70173,incorrect,-1,59,3,incorrect,-1,5,correct,1,1,-88.8708,-16.9684,-23.0636
F7_Acq,F07,acq,31,2g,2,5,41284,incorrect,-1,61,1,incorrect,-1,4,incorrect,-1,1,-276.5027,-8.6018,-3.53
F7_Acq,F07,acq,32,2p,2,4,42119,incorrect,-1,63,5,incorrect,-1,4,incorrect,-1,0,207.9551,13.6572,-37.1402
F7_Acq,F07,acq,33,2n,2,4,52807,incorrect,-1,65,4,incorrect,-1,3,incorrect,-1,1,163.1181,-19.5183,-9.3987
F7_Acq,F07,acq,34,4b,4,4,54810,correct,1,67,5,incorrect,-1,4,correct,1,0,-47.0715,9.0291,23.4604
F7_Acq,F07,acq,35,3f,3,4,24418,incorrect,-1,69,2,incorrect,-1,3,correct,1,1,205.8816,-30.3923,-40.7086
F7_Acq,F07,acq,36,5e,5,5,64328,correct,1,71,3,incorrect,-1,2,incorrect,-1,1,-125.5259,6.2925,
F7_Acq,F07,acq,37,1j,1,3,57648,incorrect,-1,73,3,incorrect,-1,3,incorrect,-1,0,-117.3496,-9.6861,-35.9941
F7_Acq,F07,acq,38,4f,4,4,17404,correct,1,75,4,correct,1,1,incorrect,-1,1,-220.5056,-3.2624,-0.7271
F7_Acq,F07,acq,39,2h,2,3,45959,incorrect,-1,77,4,incorrect,-1,3,incorrect,-1,0,-32.5574,-24.8706,-12.2248
F7_Acq,F07,acq,40,3m,3,3,75516,correct,1,79,4,incorrect,-1,5,incorrect,-1,1,-178.7354,0.7779,-10.1691
F7_Acq,F07,acq,41,4g,4,1,36942,incorrect,-1,81,4,correct,1,1,incorrect,-1,0,195.0881,-3.7557,-36.9257
F7_Acq,F07,acq,42,5o,5,2,49633,incorrect,-1,83,5,correct,1,2,incorrect,-1,0,-37.6001,-5.3418,-34.3769
F7_Acq,F07,acq,43,4m,4,1,72010,incorrect,-1,85,4,correct,1,2,incorrect,-1,1,22.1725,23.7339,
F7_Acq,F07,acq,44,4c,4,2,72176,incorrect,-1,87,1,incorrect,-1,3,incorrect,-1,1,-80.9335,-17.0089,-16.901
F7_Acq,F07,acq,45,3i,3,5,83031,incorrect,-1,89,3,correct,1,5,incorrect,-1,0,-68.3659,6.9322,18.3109
F7_Acq,F07,acq,46,3e,3,5,29929,incorrect,-1,91,5,incorrect,-1,5,incorrect,-1,0,115.5233,-19.6725,-37.4539
F7_Acq,F07,acq,47,4j,4,3,48130,incorrect,-1,93,2,incorrect,-1,2,incorrect,-1,1,27.0094,5.2652,2.9117
F7_Acq,F07,acq,48,3p,3,5,49967,incorrect,-1,95,5,incorrect,-1,5,incorrect,-1,0,-44.565,-12.798,-16.8067
F7_Acq,F07,acq,49,3o,3,5,52138,incorrect,-1,97,5,incorrect,-1,4,incorrect,-1,1,-18.3704,-3.6034,-18.1617
F7_Acq,F07,acq,50,5n,5,2,33102,incorrect,-1,99,2,incorrect,-1,2,incorrect,-1,0,47.3277,-11.535,-29.8192
F7_Acq,F07,acq,51,1p,1,3,36107,incorrect,-1,101,3,incorrect,-1,3,incorrect,-1,0,121.5903,1.9955,-1.6716
F7_Acq,F07,acq,52,2b,2,3,45459,incorrect,-1,103,3,incorrect,-1,3,incorrect,-1,0,-81.791,-12.5891,-34.4055
F7_Acq,F07,acq,53,2c,2,3,42286,incorrect,-1,105,3,incorrect,-1,3,incorrect,-1,0,-205.5076,-12.471,-33.7612
F7_Acq,F07,acq,54,4p,4,2,58650,incorrect,-1,107,3,incorrect,-1,1,incorrect,-1,1,165.1887,10.6296,-17.1794
F7_Acq,F07,acq,55,1g,1,3,67000,incorrect,-1,109,3,incorrect,-1,3,incorrect,-1,0,-102.8725,29.6746,-7.7039
F7_Acq,F07,acq,56,3h,3,4,79357,incorrect,-1,111,5,incorrect,-1,4,incorrect,-1,0,-154.4733,-3.1538,-6.7273
F7_Acq,F07,acq,57,2f,2,1,69337,incorrect,-1,113,3,incorrect,-1,3,incorrect,-1,1,235.3226,-1.8049,-19.7876
F7_Acq,F07,acq,58,5m,5,2,46961,incorrect,-1,115,2,incorrect,-1,5,correct,1,1,-162.9986,-0.02,3.6631
F7_Acq,F07,acq,59,4n,4,1,95388,incorrect,-1,117,2,incorrect,-1,4,correct,1,1,71.3749,3.0416,-36.3998
F7_Acq,F07,acq,60,1i,1,3,38779,incorrect,-1,119,3,incorrect,-1,1,correct,1,1,-182.8388,-22.6466,-7.4577
F7_Acq,F07,acq,61,2l,2,3,55811,incorrect,-1,121,1,incorrect,-1,5,incorrect,-1,1,147.2286,-12.7682,-61.7733
F7_Acq,F07,acq,62,3b,3,4,67501,incorrect,-1,123,4,incorrect,-1,4,incorrect,-1,0,165.9468,-6.1361,-12.1186
F7_Acq,F07,acq,63,4e,4,4,35272,correct,1,125,1,incorrect,-1,4,correct,1,0,332.6334,-19.1407,-2.3651
F7_Acq,F07,acq,64,5a,5,5,40115,correct,1,127,2,incorrect,-1,2,incorrect,-1,1,150.462,7.6113,
F7_Acq,F07,acq,65,3a,3,4,51136,incorrect,-1,129,4,incorrect,-1,4,incorrect,-1,0,-215.3228,-12.0971,-13.1046
F7_Acq,F07,acq,66,4i,4,4,95722,correct,1,131,4,correct,1,4,correct,1,0,108.1837,5.9525,-44.7019
F7_Acq,F07,acq,67,3k,3,4,37777,incorrect,-1,133,4,incorrect,-1,4,incorrect,-1,0,257.9987,-13.9232,-31.1965
F7_Acq,F07,acq,68,5j,5,2,51805,incorrect,-1,135,5,correct,1,3,incorrect,-1,1,318.132,-26.2565,
F7_Acq,F07,acq,69,5c,5,3,54643,incorrect,-1,137,2,incorrect,-1,1,incorrect,-1,1,-3.6611,5.0588,-31.1744
F7_Acq,F07,acq,70,3c,3,4,72511,incorrect,-1,139,4,incorrect,-1,,,,,421.4162,-6.9601,-50.0112
F7_Acq,F07,acq,71,1e,1,1,97391,correct,1,141,3,incorrect,-1,2,incorrect,-1,1,225.6359,1.5921,-31.788
F7_Acq,F07,acq,72,5d,5,1,44457,incorrect,-1,143,3,incorrect,-1,1,incorrect,-1,0,307.9773,-15.9056,
F7_Acq,F07,acq,73,1a,1,2,41785,incorrect,-1,145,1,correct,1,4,incorrect,-1,1,-62.7027,-18.4334,-10.5287
F7_Acq,F07,acq,74,1o,1,4,46293,incorrect,-1,147,2,incorrect,-1,3,incorrect,-1,1,17.7246,4.3887,-17.1185
F7_Acq,F07,acq,75,5l,5,1,36943,incorrect,-1,149,1,incorrect,-1,4,incorrect,-1,1,-72.6391,6.7071,4.3499
F7_Acq,F07,acq,76,2i,2,5,42954,incorrect,-1,151,3,incorrect,-1,,,,,-0.3426,28.5867,-19.2896
F7_Acq,F07,acq,77,1l,1,3,57315,incorrect,-1,153,4,incorrect,-1,4,incorrect,-1,1,32.7323,-10.7642,-32.6376
F7_Acq,F07,acq,78,1b,1,4,86537,incorrect,-1,155,3,incorrect,-1,,,,,-56.3278,-11.7124,2.6365
F7_Acq,F07,acq,79,5f,5,4,30262,incorrect,-1,157,1,incorrect,-1,,,,,122.0983,2.184,-25.7628
F7_Acq,F07,acq,80,4d,4,4,29094,correct,1,159,4,correct,1,,,,,-203.8132,13.7932,-8.7193
F8_Acq,F08,acq,1,1f,1,1,13397,correct,1,1,,,,,,,,13.9697,-8.2,21.7793
F8_Acq,F08,acq,2,2m,2,2,7886,correct,1,3,,,,,,,,6.0853,-5.5658,1.6255
F8_Acq,F08,acq,3,5i,5,3,15568,incorrect,-1,5,,,,,,,,,3.325,
F8_Acq,F08,acq,4,3g,3,4,15735,incorrect,-1,7,,,,,,,,1.4939,,-21.7504
F8_Acq,F08,acq,5,3l,3,2,22081,incorrect,-1,9,4,incorrect,-1,5,incorrect,-1,1,-7.2913,6.3045,8.7814
F8_Acq,F08,acq,6,1d,1,5,14231,incorrect,-1,11,1,correct,1,1,correct,1,1,3.158,-13.8638,8.7747
F8_Acq,F08,acq,7,2d,2,5,37944,incorrect,-1,13,2,correct,1,4,incorrect,-1,1,0.3177,-15.1484,-2.4305
F8_Acq,F08,acq,8,4h,4,4,11560,correct,1,15,,,,5,incorrect,-1,1,16.8031,-20.4289,-13.3742
F8_Acq,F08,acq,9,5g,5,4,10892,incorrect,-1,17,3,incorrect,-1,4,incorrect,-1,0,2.6442,1.2681,1.9473
F8_Acq,F08,acq,10,3j,3,5,28093,incorrect,-1,19,2,incorrect,-1,1,incorrect,-1,1,13.625,-3.9775,
F8_Acq,F08,acq,11,2k,2,4,31097,incorrect,-1,21,5,incorrect,-1,3,incorrect,-1,1,9.0976,6.8092,7.714
F8_Acq,F08,acq,12,2j,2,3,19075,incorrect,-1,23,4,incorrect,-1,3,incorrect,-1,0,6.5138,-15.8992,14.0396
F8_Acq,F08,acq,13,1m,1,1,15233,correct,1,25,5,incorrect,-1,1,correct,1,0,12.5804,16.4223,2.149
F8_Acq,F08,acq,14,1k,1,1,34604,correct,1,27,1,correct,1,1,correct,1,0,17.2195,-29.6316,-13.4221
F8_Acq,F08,acq,15,2o,2,3,21914,incorrect,-1,29,3,incorrect,-1,2,correct,1,1,-8.6746,-2.8195,-6.6858
F8_Acq,F08,acq,16,5h,5,4,18072,incorrect,-1,31,4,incorrect,-1,4,incorrect,-1,0,-2.9967,-3.2811,2.765
F8_Acq,F08,acq,17,4o,4,5,18240,incorrect,-1,33,4,correct,1,3,incorrect,-1,1,8.7325,10.1704,13.6741
F8_Acq,F08,acq,18,1h,1,1,19576,correct,1,35,1,correct,1,2,incorrect,-1,1,34.5991,-17.6437,-10.8479
F8_Acq,F08,acq,19,1n,1,2,16569,incorrect,-1,37,1,correct,1,2,incorrect,-1,0,15.4289,1.6625,7.7818
F8_Acq,F08,acq,20,4k,4,3,27090,incorrect,-1,39,5,incorrect,-1,4,correct,1,1,8.7433,-12.7615,-14.4864
F8_Acq,F08,acq,21,5p,5,4,13564,incorrect,-1,41,4,incorrect,-1,5,correct,1,1,-0.074,19.6684,9.4643
F8_Acq,F08,acq,22,3d,3,1,25921,incorrect,-1,43,5,incorrect,-1,1,incorrect,-1,0,18.4952,5.9746,-3.7811
F8_Acq,F08,acq,23,4l,4,4,14232,correct,1,45,3,incorrect,-1,4,correct,1,0,26.3971,-10.6347,-4.0598
F8_Acq,F08,acq,24,3n,3,1,13898,incorrect,-1,47,1,incorrect,-1,1,incorrect,-1,0,10.8477,13.1594,-7.4692
F8_Acq,F08,acq,25,4a,4,4,9557,correct,1,49,4,correct,1,4,correct,1,0,4.7128,7.7518,2.7872
F8_Acq,F08,acq,26,5k,5,5,39780,correct,1,51,4,incorrect,-1,4,incorrect,-1,1,13.8465,9.4427,14.6801
F8_Acq,F08,acq,27,1c,1,2,29261,incorrect,-1,53,2,incorrect,-1,1,correct,1,1,2.9423,13.8498,-3.1065
F8_Acq,F08,acq,28,2e,2,2,21245,correct,1,55,3,incorrect,-1,2,correct,1,0,10.1969,-5.1759,2.1106
F8_Acq,F08,acq,29,2a,2,2,8387,correct,1,57,2,correct,1,4,incorrect,-1,1,17.8903,11.3255,4.6508
F8_Acq,F08,acq,30,5b,5,4,44624,incorrect,-1,59,5,correct,1,3,incorrect,-1,1,11.7126,29.6537,23.5959
F8_Acq,F08,acq,31,2g,2,4,11393,incorrect,-1,61,2,correct,1,2,correct,1,1,22.3943,-20.6351,-1.7378
F8_Acq,F08,acq,32,2p,2,2,40449,correct,1,63,4,incorrect,-1,2,correct,1,0,15.3101,-22.1314,11.1032
F8_Acq,F08,acq,33,2n,2,2,7719,correct,1,65,2,correct,1,3,incorrect,-1,1,8.691,-25.9955,5.8104
F8_Acq,F08,acq,34,4b,4,4,16904,correct,1,67,4,correct,1,4,correct,1,0,8.5519,1.966,-8.2567
F8_Acq,F08,acq,35,3f,3,1,17906,incorrect,-1,69,1,incorrect,-1,5,incorrect,-1,1,13.2412,3.1984,-7.7805
F8_Acq,F08,acq,36,5e,5,3,21914,incorrect,-1,71,4,incorrect,-1,5,correct,1,1,19.6146,-7.7419,9.6742
F8_Acq,F08,acq,37,1j,1,1,17070,correct,1,73,2,incorrect,-1,5,incorrect,-1,1,24.0282,3.8323,-1.1896
F8_Acq,F08,acq,38,4f,4,4,10391,correct,1,75,4,correct,1,4,correct,1,0,5.3636,14.7297,24.6309
F8_Acq,F08,acq,39,2h,2,3,14733,incorrect,-1,77,2,correct,1,2,correct,1,1,14.1867,2.644,11.2908
F8_Acq,F08,acq,40,3m,3,5,29094,incorrect,-1,79,1,incorrect,-1,3,correct,1,1,-3.139,-9.3763,15.3011
F8_Acq,F08,acq,41,4g,4,4,16068,correct,1,81,4,correct,1,4,correct,1,0,23.7288,4.0115,-10.2707
F8_Acq,F08,acq,42,5o,5,5,64662,correct,1,83,3,incorrect,-1,5,correct,1,0,20.3885,-5.1544,-1.6209
F8_Acq,F08,acq,43,4m,4,4,11728,correct,1,85,4,correct,1,4,correct,1,0,,-21.0145,-2.371
F8_Acq,F08,acq,44,4c,4,4,8888,correct,1,87,4,correct,1,4,correct,1,0,6.147,,10.64
F8_Acq,F08,acq,45,3i,3,3,25754,correct,1,89,5,incorrect,-1,3,correct,1,0,19.6375,-14.4323,-9.6428
F8_Acq,F08,acq,46,3e,3,3,7886,correct,1,91,3,correct,1,3,correct,1,0,10.559,15.4324,-8.0063
F8_Acq,F08,acq,47,4j,4,4,10558,correct,1,93,4,correct,1,4,correct,1,0,-0.0068,20.1112,-0.9124
F8_Acq,F08,acq,48,3p,3,3,11560,correct,1,95,3,correct,1,3,correct,1,0,16.9848,0.3039,-33.1249
F8_Acq,F08,acq,49,3o,3,3,7553,correct,1,97,3,correct,1,3,correct,1,0,9.183,-7.4525,-27.8071
F8_Acq,F08,acq,50,5n,5,5,17237,correct,1,99,5,correct,1,5,correct,1,0,1.4618,5.5236,-5.0836
F8_Acq,F08,acq,51,1p,1,5,31933,incorrect,-1,101,1,correct,1,3,incorrect,-1,1,18.3423,-15.3283,11.3804
F8_Acq,F08,acq,52,2b,2,2,9557,correct,1,103,3,incorrect,-1,2,correct,1,0,22.7123,9.063,-8.9626
F8_Acq,F08,acq,53,2c,2,2,10057,correct,1,105,2,correct,1,2,correct,1,0,5.0334,-23.9296,7.7133
F8_Acq,F08,acq,54,4p,4,4,12729,correct,1,107,4,correct,1,4,correct,1,0,2.815,12.9381,-7.1301
F8_Acq,F08,acq,55,1g,1,3,27090,incorrect,-1,109,5,incorrect,-1,5,incorrect,-1,1,0.7493,-1.7417,-0.1685
F8_Acq,F08,acq,56,3h,3,3,15568,correct,1,111,3,correct,1,3,correct,1,0,-15.5102,-13.4376,-8.48
F8_Acq,F08,acq,57,2f,2,2,14232,correct,1,113,2,correct,1,2,correct,1,0,10.6313,-1.4224,-10.6775
F8_Acq,F08,acq,58,5m,5,5,11393,correct,1,115,5,correct,1,5,correct,1,0,8.6384,-3.9434,-5.1147
F8_Acq,F08,acq,59,4n,4,4,7720,correct,1,117,4,correct,1,4,correct,1,0,1.9523,20.3253,-12.354
F8_Acq,F08,acq,60,1i,1,5,17404,incorrect,-1,119,3,incorrect,-1,5,incorrect,-1,0,5.8265,10.6139,0.6331
F8_Acq,F08,acq,61,2l,2,2,10725,correct,1,121,2,correct,1,2,correct,1,0,12.934,3.0976,-29.4452
F8_Acq,F08,acq,62,3b,3,3,11894,correct,1,123,3,correct,1,3,correct,1,0,21.3431,-3.1431,-6.4789
F8_Acq,F08,acq,63,4e,4,4,10058,correct,1,125,4,correct,1,4,correct,1,0,3.2413,32.5529,-5.5566
F8_Acq,F08,acq,64,5a,5,5,12228,correct,1,127,5,correct,1,5,correct,1,0,9.612,5.6405,-11.9759
F8_Acq,F08,acq,65,3a,3,3,17404,correct,1,129,3,correct,1,3,correct,1,0,12.7166,0.2127,2.5537
F8_Acq,F08,acq,66,4i,4,4,9222,correct,1,131,4,correct,1,4,correct,1,0,6.9641,-11.8336,-0.5884
F8_Acq,F08,acq,67,3k,3,3,11060,correct,1,133,3,correct,1,3,correct,1,0,-2.4582,1.5166,18.0799
F8_Acq,F08,acq,68,5j,5,5,23584,correct,1,135,5,correct,1,5,correct,1,0,25.7711,-3.2655,45.7729
F8_Acq,F08,acq,69,5c,5,5,15067,correct,1,137,5,correct,1,5,correct,1,0,10.4133,-28.1304,2.7529
F8_Acq,F08,acq,70,3c,3,3,19910,correct,1,139,3,correct,1,,,,,-6.2199,36.3892,-14.4439
F8_Acq,F08,acq,71,1e,1,5,41450,incorrect,-1,141,5,incorrect,-1,1,correct,1,1,8.6495,-10.8851,11.664
F8_Acq,F08,acq,72,5d,5,5,14733,correct,1,143,5,correct,1,5,correct,1,0,-2.7596,14.9876,-3.8261
F8_Acq,F08,acq,73,1a,1,1,29260,correct,1,145,5,incorrect,-1,1,correct,1,0,10.8861,3.4116,1.6446
F8_Acq,F08,acq,74,1o,1,1,12395,correct,1,147,1,correct,1,1,correct,1,0,12.1287,-2.2868,-8.8944
F8_Acq,F08,acq,75,5l,5,5,12061,correct,1,149,5,correct,1,5,correct,1,0,11.2162,16.6389,6.8929
F8_Acq,F08,acq,76,2i,2,2,11894,correct,1,151,2,correct,1,,,,,-13.5359,-16.6059,-2.1778
F8_Acq,F08,acq,77,1l,1,1,12395,correct,1,153,1,correct,1,1,correct,1,0,18.7252,-10.5252,-2.253
F8_Acq,F08,acq,78,1b,1,1,12228,correct,1,155,1,correct,1,,,,,11.8398,27.5564,26.7787
F8_Acq,F08,acq,79,5f,5,5,11393,correct,1,157,5,correct,1,,,,,-22.4806,8.6779,
F8_Acq,F08,acq,80,4d,4,4,10225,correct,1,159,4,correct,1,,,,,14.9525,6.4896,
F9_Acq,F09,acq,1,1f,1,1,19436,correct,1,1,,,,,,,,-7.4082,9.089,-15.0507
F9_Acq,F09,acq,2,2m,2,2,25420,correct,1,3,,,,,,,,-3.9718,-6.5249,-55.7767
F9_Acq,F09,acq,3,5i,5,2,22915,incorrect,-1,5,,,,,,,,,-1.9239,
F9_Acq,F09,acq,4,3g,3,3,15401,correct,1,7,,,,,,,,-1.5064,14.9457,0.5457
F9_Acq,F09,acq,5,3l,3,3,21245,correct,1,9,3,correct,1,4,incorrect,-1,1,-2.2848,4.0772,12.4911
F9_Acq,F09,acq,6,1d,1,4,18239,incorrect,-1,11,1,correct,1,5,incorrect,-1,1,-2.6084,3.4911,0.7893
F9_Acq,F09,acq,7,2d,2,3,13731,incorrect,-1,13,2,correct,1,5,incorrect,-1,1,-1.0557,-5.7857,-17.1678
F9_Acq,F09,acq,8,4h,4,5,17071,incorrect,-1,15,,,,3,incorrect,-1,1,2.2584,3.0753,-41.9947
F9_Acq,F09,acq,9,5g,5,1,24752,incorrect,-1,17,2,incorrect,-1,2,incorrect,-1,1,10.7858,-0.0962,-14.4527
F9_Acq,F09,acq,10,3j,3,4,39280,incorrect,-1,19,3,correct,1,3,correct,1,1,-0.4812,-0.4343,-46.144
F9_Acq,F09,acq,11,2k,2,5,18740,incorrect,-1,21,3,incorrect,-1,4,incorrect,-1,1,12.7701,-3.1426,-24.0451
F9_Acq,F09,acq,12,2j,2,4,43621,incorrect,-1,23,5,incorrect,-1,5,incorrect,-1,1,,38.2434,
F9_Acq,F09,acq,13,1m,1,5,45791,incorrect,-1,25,4,incorrect,-1,1,correct,1,1,,,
F9_Acq,F09,acq,14,1k,1,1,44957,correct,1,27,5,incorrect,-1,1,correct,1,0,40.1747,,
F9_Acq,F09,acq,15,2o,2,5,18907,incorrect,-1,29,4,incorrect,-1,4,incorrect,-1,1,-2.1101,-14.2188,-77.7347
F9_Acq,F09,acq,16,5h,5,2,46627,incorrect,-1,31,1,incorrect,-1,5,correct,1,1,-1.2845,-1.8292,-113.2215
F9_Acq,F09,acq,17,4o,4,3,31932,incorrect,-1,33,5,incorrect,-1,4,correct,1,1,-7.248,24.645,-13.8102
F9_Acq,F09,acq,18,1h,1,1,45791,correct,1,35,1,correct,1,5,incorrect,-1,1,,19.4656,
F9_Acq,F09,acq,19,1n,1,5,57815,incorrect,-1,37,1,correct,1,5,incorrect,-1,0,0.9318,37.9006,39.2654
F9_Acq,F09,acq,20,4k,4,4,41784,correct,1,39,3,incorrect,-1,2,incorrect,-1,1,-4.2228,-7.098,-52.6413
F9_Acq,F09,acq,21,5p,5,5,37610,correct,1,41,2,incorrect,-1,1,incorrect,-1,1,6.6081,34.4771,-76.1672
F9_Acq,F09,acq,22,3d,3,3,40449,correct,1,43,4,incorrect,-1,4,incorrect,-1,1,8.4506,22.3606,-8.1852
F9_Acq,F09,acq,23,4l,4,2,19576,incorrect,-1,45,4,correct,1,3,incorrect,-1,1,5.1151,-8.044,-21.4614
F9_Acq,F09,acq,24,3n,3,4,92548,incorrect,-1,47,3,correct,1,2,incorrect,-1,1,-0.4127,25.8402,-53.6777
F9_Acq,F09,acq,25,4a,4,3,82695,incorrect,-1,49,2,incorrect,-1,5,incorrect,-1,1,0.4649,-28.8549,6.5499
F9_Acq,F09,acq,26,5k,5,1,21746,incorrect,-1,51,5,correct,1,5,correct,1,1,-5.7861,3.5444,-119.4465
F9_Acq,F09,acq,27,1c,1,5,67333,incorrect,-1,53,5,incorrect,-1,5,incorrect,-1,0,7.5273,12.6841,107.8211
F9_Acq,F09,acq,28,2e,2,4,62657,incorrect,-1,55,5,incorrect,-1,3,incorrect,-1,1,-6.2862,-5.7481,-37.9644
F9_Acq,F09,acq,29,2a,2,3,43621,incorrect,-1,57,4,incorrect,-1,2,correct,1,1,-0.851,10.44,-93.6211
F9_Acq,F09,acq,30,5b,5,5,33601,correct,1,59,1,incorrect,-1,2,incorrect,-1,1,0.4597,3.5223,40.39
F9_Acq,F09,acq,31,2g,2,2,49967,correct,1,61,3,incorrect,-1,4,incorrect,-1,1,-4.7823,-2.3622,-61.0022
F9_Acq,F09,acq,32,2p,2,4,22748,incorrect,-1,63,2,correct,1,4,incorrect,-1,0,3.4399,23.6259,
F9_Acq,F09,acq,33,2n,2,4,26088,incorrect,-1,65,4,incorrect,-1,5,incorrect,-1,1,-0.3335,15.9776,52.2255
F9_Acq,F09,acq,34,4b,4,5,52972,incorrect,-1,67,3,incorrect,-1,3,incorrect,-1,1,-1.1651,-0.8746,0.5282
F9_Acq,F09,acq,35,3f,3,2,15066,incorrect,-1,69,4,incorrect,-1,4,incorrect,-1,1,-5.4171,-4.0449,28.1953
F9_Acq,F09,acq,36,5e,5,2,50635,incorrect,-1,71,5,correct,1,5,correct,1,1,-0.4937,-0.9987,1.0943
F9_Acq,F09,acq,37,1j,1,5,31933,incorrect,-1,73,5,incorrect,-1,2,incorrect,-1,1,-3.212,-7.5104,-48.0093
F9_Acq,F09,acq,38,4f,4,3,71007,incorrect,-1,75,5,incorrect,-1,2,incorrect,-1,1,-12.3156,3.3685,-21.0255
F9_Acq,F09,acq,39,2h,2,5,17571,incorrect,-1,77,4,incorrect,-1,4,incorrect,-1,1,-9.9634,-5.4711,-71.1412
F9_Acq,F09,acq,40,3m,3,4,55310,incorrect,-1,79,2,incorrect,-1,5,incorrect,-1,1,-3.7562,21.6799,-62.7737
F9_Acq,F09,acq,41,4g,4,2,68502,incorrect,-1,81,3,incorrect,-1,4,correct,1,1,-5.9197,-3.5907,-23.3147
F9_Acq,F09,acq,42,5o,5,5,33769,correct,1,83,2,incorrect,-1,4,incorrect,-1,1,4.0087,-9.7308,7.962
F9_Acq,F09,acq,43,4m,4,4,57147,correct,1,85,3,incorrect,-1,3,incorrect,-1,1,12.4108,29.286,-81.7901
F9_Acq,F09,acq,44,4c,4,3,41784,incorrect,-1,87,4,correct,1,1,incorrect,-1,1,,-8.8437,
F9_Acq,F09,acq,45,3i,3,5,33936,incorrect,-1,89,4,incorrect,-1,4,incorrect,-1,1,1.5469,,22.7881
F9_Acq,F09,acq,46,3e,3,4,62324,incorrect,-1,91,5,incorrect,-1,1,incorrect,-1,1,-11.3239,-12.7844,-2.17
F9_Acq,F09,acq,47,4j,4,1,60987,incorrect,-1,93,3,incorrect,-1,3,incorrect,-1,1,-17.731,-22.4329,-54.9124
F9_Acq,F09,acq,48,3p,3,1,38611,incorrect,-1,95,4,incorrect,-1,1,incorrect,-1,0,5.0602,-25.7985,-64.3551
F9_Acq,F09,acq,49,3o,3,1,50802,incorrect,-1,97,1,incorrect,-1,1,incorrect,-1,0,1.0439,25.0708,-53.2331
F9_Acq,F09,acq,50,5n,5,4,54976,incorrect,-1,99,5,correct,1,2,incorrect,-1,1,-14.8422,1.5034,9.7446
F9_Acq,F09,acq,51,1p,1,2,112920,incorrect,-1,101,5,incorrect,-1,1,correct,1,1,2.7929,30.3108,-11.7733
F9_Acq,F09,acq,52,2b,2,4,88706,incorrect,-1,103,5,incorrect,-1,5,incorrect,-1,1,-1.4354,-8.672,-7.9138
F9_Acq,F09,acq,53,2c,2,5,43788,incorrect,-1,105,4,incorrect,-1,3,incorrect,-1,1,1.3426,-15.2842,-67.7026
F9_Acq,F09,acq,54,4p,4,3,20243,incorrect,-1,107,1,incorrect,-1,1,incorrect,-1,1,-0.4592,-10.6203,6.9313
F9_Acq,F09,acq,55,1g,1,1,37443,correct,1,109,2,incorrect,-1,4,incorrect,-1,1,2.9136,-3.8402,-55.0551
F9_Acq,F09,acq,56,3h,3,1,28926,incorrect,-1,111,1,incorrect,-1,2,incorrect,-1,1,-0.8973,21.4115,-48.6422
F9_Acq,F09,acq,57,2f,2,2,23416,correct,1,113,5,incorrect,-1,3,incorrect,-1,1,-7.8877,-2.0153,66.5715
F9_Acq,F09,acq,58,5m,5,2,25921,incorrect,-1,115,4,incorrect,-1,5,correct,1,1,0.1865,3.0071,21.6089
F9_Acq,F09,acq,59,4n,4,1,22748,incorrect,-1,117,3,incorrect,-1,2,incorrect,-1,1,6.0165,18.4777,-58.2287
F9_Acq,F09,acq,60,1i,1,4,80691,incorrect,-1,119,1,correct,1,5,incorrect,-1,1,0.9058,-5.3279,0.5122
F9_Acq,F09,acq,61,2l,2,3,25921,incorrect,-1,121,2,correct,1,5,incorrect,-1,1,9.3067,-18.7752,-19.3545
F9_Acq,F09,acq,62,3b,3,2,27423,incorrect,-1,123,1,incorrect,-1,4,incorrect,-1,1,7.3445,16.7272,-30.157
F9_Acq,F09,acq,63,4e,4,2,56980,incorrect,-1,125,1,incorrect,-1,1,incorrect,-1,1,-2.5593,5.6344,-24.3894
F9_Acq,F09,acq,64,5a,5,5,18239,correct,1,127,2,incorrect,-1,4,incorrect,-1,1,-8.281,-5.7775,-29.167
F9_Acq,F09,acq,65,3a,3,4,60319,incorrect,-1,129,2,incorrect,-1,1,incorrect,-1,1,1.4214,-1.2847,
F9_Acq,F09,acq,66,4i,4,1,22581,incorrect,-1,131,2,incorrect,-1,4,correct,1,1,8.0669,18.0389,32.3122
F9_Acq,F09,acq,67,3k,3,1,64494,incorrect,-1,133,4,incorrect,-1,2,incorrect,-1,1,12.9171,-18.1468,
F9_Acq,F09,acq,68,5j,5,4,31431,incorrect,-1,135,5,correct,1,2,incorrect,-1,1,0.0095,-3.4989,-24.4085
F9_Acq,F09,acq,69,5c,5,2,17404,incorrect,-1,137,4,incorrect,-1,4,incorrect,-1,1,-1.8978,-31.8694,-3.3281
F9_Acq,F09,acq,70,3c,3,2,33936,incorrect,-1,139,1,incorrect,-1,,,,,-1.5711,-11.2631,45.2064
F9_Acq,F09,acq,71,1e,1,5,49298,incorrect,-1,141,4,incorrect,-1,3,incorrect,-1,1,-1.8106,-8.342,-6.9632
F9_Acq,F09,acq,72,5d,5,4,25921,incorrect,-1,143,2,incorrect,-1,1,incorrect,-1,1,-1.1284,-1.6397,27.4639
F9_Acq,F09,acq,73,1a,1,3,50634,incorrect,-1,145,5,incorrect,-1,3,incorrect,-1,0,1.8993,-23.0227,-26.2959
F9_Acq,F09,acq,74,1o,1,3,47963,incorrect,-1,147,3,incorrect,-1,4,incorrect,-1,1,0.4697,2.2347,-44.4187
F9_Acq,F09,acq,75,5l,5,1,66832,incorrect,-1,149,4,incorrect,-1,3,incorrect,-1,1,-0.8786,4.5269,-46.8664
F9_Acq,F09,acq,76,2i,2,5,21412,incorrect,-1,151,3,incorrect,-1,,,,,-7.9578,-17.1829,-51.4587
F9_Acq,F09,acq,77,1l,1,4,35606,incorrect,-1,153,3,incorrect,-1,2,incorrect,-1,1,-4.1112,27.9195,-74.4711
F9_Acq,F09,acq,78,1b,1,2,16736,incorrect,-1,155,4,incorrect,-1,,,,,-0.6,-4.6681,33.6545
F9_Acq,F09,acq,79,5f,5,3,64995,incorrect,-1,157,1,incorrect,-1,,,,,-3.3532,7.6768,-55.8479
F9_Acq,F09,acq,80,4d,4,4,23750,correct,1,159,1,incorrect,-1,,,,,1.3983,-2.263,-55.3021
F10_Acq,F10,acq,1,1f,1,1,12395,correct,1,1,,,,,,,,15.7774,-25.5287,-3.687
F10_Acq,F10,acq,2,2m,2,2,10892,correct,1,3,,,,,,,,11.4417,-0.4286,17.6079
F10_Acq,F10,acq,3,5i,5,1,14065,incorrect,-1,5,,,,,,,,21.6636,4.6063,-22.5649
F10_Acq,F10,acq,4,3g,3,3,14733,correct,1,7,,,,,,,,-5.5776,-1.2951,-15.9011
F10_Acq,F10,acq,5,3l,3,4,19075,incorrect,-1,9,3,correct,1,3,correct,1,1,-0.6394,0.9096,-18.1665
F10_Acq,F10,acq,6,1d,1,5,19408,incorrect,-1,11,1,correct,1,5,incorrect,-1,0,6.5189,14.5291,-23.6582
F10_Acq,F10,acq,7,2d,2,2,29929,correct,1,13,2,correct,1,4,incorrect,-1,1,8.4656,-8.6158,18.9483
F10_Acq,F10,acq,8,4h,4,1,30429,incorrect,-1,15,,,,4,correct,1,1,5.0335,-0.4631,-6.8315
F10_Acq,F10,acq,9,5g,5,1,23750,incorrect,-1,17,1,incorrect,-1,3,incorrect,-1,1,3.1551,9.3553,21.665
F10_Acq,F10,acq,10,3j,3,3,26589,correct,1,19,4,incorrect,-1,5,incorrect,-1,1,6.8693,-1.3094,5.0229
F10_Acq,F10,acq,11,2k,2,4,25253,incorrect,-1,21,2,correct,1,4,incorrect,-1,0,-20.3139,1.4069,-12.3485
F10_Acq,F10,acq,12,2j,2,4,32433,incorrect,-1,23,4,incorrect,-1,5,incorrect,-1,1,-18.0184,7.8638,-18.8112
F10_Acq,F10,acq,13,1m,1,5,34604,incorrect,-1,25,5,incorrect,-1,3,incorrect,-1,1,5.6485,6.2473,-11.3835
F10_Acq,F10,acq,14,1k,1,3,32767,incorrect,-1,27,5,incorrect,-1,2,incorrect,-1,1,-16.733,-6.9604,-12.9152
F10_Acq,F10,acq,15,2o,2,5,28092,incorrect,-1,29,4,incorrect,-1,5,incorrect,-1,0,-19.5105,15.9465,14.8928
F10_Acq,F10,acq,16,5h,5,3,43788,incorrect,-1,31,1,incorrect,-1,2,incorrect,-1,1,0.0752,4.3684,-20.0629
F10_Acq,F10,acq,17,4o,4,4,44790,correct,1,33,1,incorrect,-1,1,incorrect,-1,1,8.2143,0.8638,1.1341
F10_Acq,F10,acq,18,1h,1,2,42118,incorrect,-1,35,3,incorrect,-1,3,incorrect,-1,1,9.7365,30.3446,3.6178
F10_Acq,F10,acq,19,1n,1,3,39280,incorrect,-1,37,2,incorrect,-1,2,incorrect,-1,1,-3.5329,3.4265,1.8833
F10_Acq,F10,acq,20,4k,4,1,33936,incorrect,-1,39,4,correct,1,1,incorrect,-1,0,-5.2264,27.6511,0.6459
F10_Acq,F10,acq,21,5p,5,2,46293,incorrect,-1,41,3,incorrect,-1,1,incorrect,-1,1,5.4332,13.8296,27.7366
F10_Acq,F10,acq,22,3d,3,5,35773,incorrect,-1,43,3,correct,1,2,incorrect,-1,1,0.2068,-12.5545,0.8625
F10_Acq,F10,acq,23,4l,4,1,30262,incorrect,-1,45,1,incorrect,-1,2,incorrect,-1,1,8.9073,-2.3749,-8.7194
F10_Acq,F10,acq,24,3n,3,2,33102,incorrect,-1,47,5,incorrect,-1,2,incorrect,-1,0,-0.7043,11.8765,-2.0759
F10_Acq,F10,acq,25,4a,4,2,42787,incorrect,-1,49,1,incorrect,-1,1,incorrect,-1,1,1.878,5.5309,-8.1028
F10_Acq,F10,acq,26,5k,5,1,55143,incorrect,-1,51,2,incorrect,-1,2,incorrect,-1,1,5.1991,-3.6579,3.6295
F10_Acq,F10,acq,27,1c,1,2,55143,incorrect,-1,53,3,incorrect,-1,3,incorrect,-1,1,-8.0181,3.0839,13.8667
F10_Acq,F10,acq,28,2e,2,5,38445,incorrect,-1,55,5,incorrect,-1,4,incorrect,-1,1,-8.9546,6.7688,-10.0339
F10_Acq,F10,acq,29,2a,2,4,43287,incorrect,-1,57,5,incorrect,-1,3,incorrect,-1,1,1.3796,2.4782,24.7669
F10_Acq,F10,acq,30,5b,5,2,48798,incorrect,-1,59,1,incorrect,-1,2,incorrect,-1,0,3.4391,-23.4781,-10.903
F10_Acq,F10,acq,31,2g,2,3,38445,incorrect,-1,61,4,incorrect,-1,3,incorrect,-1,0,-11.5677,14.0888,-37.6827
F10_Acq,F10,acq,32,2p,2,3,60153,incorrect,-1,63,3,incorrect,-1,4,incorrect,-1,1,-10.1059,18.6135,22.4038
F10_Acq,F10,acq,33,2n,2,4,63827,incorrect,-1,65,3,incorrect,-1,4,incorrect,-1,0,,11.7472,27.4973
F10_Acq,F10,acq,34,4b,4,1,37776,incorrect,-1,67,2,incorrect,-1,2,incorrect,-1,1,-5.9043,,18.9205
F10_Acq,F10,acq,35,3f,3,2,28760,incorrect,-1,69,2,incorrect,-1,4,incorrect,-1,1,-9.7981,-11.6092,1.2399
F10_Acq,F10,acq,36,5e,5,2,67333,incorrect,-1,71,2,incorrect,-1,2,incorrect,-1,0,-10.0895,-5.228,35.6069
F10_Acq,F10,acq,37,1j,1,3,40783,incorrect,-1,73,2,incorrect,-1,5,incorrect,-1,1,-20.1861,-6.4293,-9.245
F10_Acq,F10,acq,38,4f,4,2,49800,incorrect,-1,75,1,incorrect,-1,5,incorrect,-1,1,3.7719,-1.6871,19.1641
F10_Acq,F10,acq,39,2h,2,4,35606,incorrect,-1,77,4,incorrect,-1,5,incorrect,-1,1,-24.0756,-0.3601,68.3343
F10_Acq,F10,acq,40,3m,3,4,48130,incorrect,-1,79,2,incorrect,-1,1,incorrect,-1,1,-0.059,-4.1976,-27.6347
F10_Acq,F10,acq,41,4g,4,5,49466,incorrect,-1,81,2,incorrect,-1,3,incorrect,-1,1,5.3849,12.7978,-22.4577
F10_Acq,F10,acq,42,5o,5,2,37276,incorrect,-1,83,2,incorrect,-1,2,incorrect,-1,0,-7.3892,9.2115,1.159
F10_Acq,F10,acq,43,4m,4,3,55979,incorrect,-1,85,2,incorrect,-1,4,correct,1,1,-2.0444,12.1194,0.6231
F10_Acq,F10,acq,44,4c,4,4,79023,correct,1,87,3,incorrect,-1,2,incorrect,-1,1,28.834,-1.8389,-15.4035
F10_Acq,F10,acq,45,3i,3,1,62991,incorrect,-1,89,4,incorrect,-1,2,incorrect,-1,1,-2.2133,2.1597,-3.9682
F10_Acq,F10,acq,46,3e,3,2,48464,incorrect,-1,91,1,incorrect,-1,2,incorrect,-1,0,-2.672,0.3087,-4.4459
F10_Acq,F10,acq,47,4j,4,2,54475,incorrect,-1,93,4,correct,1,3,incorrect,-1,1,2.7535,6.5231,-6.8278
F10_Acq,F10,acq,48,3p,3,2,40449,incorrect,-1,95,2,incorrect,-1,3,correct,1,1,-1.9081,-2.3798,11.2808
F10_Acq,F10,acq,49,3o,3,3,49799,correct,1,97,2,incorrect,-1,1,incorrect,-1,1,-2.0957,-12.7227,-8.6775
F10_Acq,F10,acq,50,5n,5,2,55645,incorrect,-1,99,2,incorrect,-1,2,incorrect,-1,0,0.2094,7.0091,-12.4583
F10_Acq,F10,acq,51,1p,1,5,39780,incorrect,-1,101,3,incorrect,-1,4,incorrect,-1,1,-9.0053,10.9133,15.3024
F10_Acq,F10,acq,52,2b,2,5,58316,incorrect,-1,103,4,incorrect,-1,4,incorrect,-1,1,2.4625,0.6735,28.1867
F10_Acq,F10,acq,53,2c,2,4,72844,incorrect,-1,105,5,incorrect,-1,3,incorrect,-1,1,0.7395,-0.8972,4.6521
F10_Acq,F10,acq,54,4p,4,3,59484,incorrect,-1,107,2,incorrect,-1,2,incorrect,-1,1,-3.7878,-26.996,5.6792
F10_Acq,F10,acq,55,1g,1,4,90545,incorrect,-1,109,5,incorrect,-1,2,incorrect,-1,1,4.8028,12.5632,-12.819
F10_Acq,F10,acq,56,3h,3,1,47295,incorrect,-1,111,3,correct,1,4,incorrect,-1,1,5.3134,-4.3521,9.3395
F10_Acq,F10,acq,57,2f,2,4,47796,incorrect,-1,113,4,incorrect,-1,3,incorrect,-1,1,9.2818,11.6452,-11.2791
F10_Acq,F10,acq,58,5m,5,2,57314,incorrect,-1,115,2,incorrect,-1,4,incorrect,-1,1,-6.6595,8.3129,7.738
F10_Acq,F10,acq,59,4n,4,2,43121,incorrect,-1,117,3,incorrect,-1,5,incorrect,-1,1,-0.5569,5.4998,-4.207
F10_Acq,F10,acq,60,1i,1,2,60988,incorrect,-1,119,4,incorrect,-1,5,incorrect,-1,1,1.5743,0.8238,-10.8603
F10_Acq,F10,acq,61,2l,2,3,33936,incorrect,-1,121,4,incorrect,-1,5,incorrect,-1,1,0.3637,6.3111,-8.1542
F10_Acq,F10,acq,62,3b,3,4,34270,incorrect,-1,123,1,incorrect,-1,3,correct,1,1,3.7654,13.1544,-7.4231
F10_Acq,F10,acq,63,4e,4,5,73011,incorrect,-1,125,2,incorrect,-1,4,correct,1,1,5.4236,-3.4186,-5.1106
F10_Acq,F10,acq,64,5a,5,4,42786,incorrect,-1,127,2,incorrect,-1,2,incorrect,-1,1,-2.6921,5.3191,-20.1061
F10_Acq,F10,acq,65,3a,3,3,66833,correct,1,129,4,incorrect,-1,1,incorrect,-1,1,-4.8183,15.6469,-32.3695
F10_Acq,F10,acq,66,4i,4,4,53641,correct,1,131,5,incorrect,-1,4,correct,1,0,30.3635,17.6236,-14.0798
F10_Acq,F10,acq,67,3k,3,1,79523,incorrect,-1,133,3,correct,1,4,incorrect,-1,1,3.5099,12.0902,13.2065
F10_Acq,F10,acq,68,5j,5,2,47629,incorrect,-1,135,4,incorrect,-1,2,incorrect,-1,0,3.6014,-5.916,34.087
F10_Acq,F10,acq,69,5c,5,2,99060,incorrect,-1,137,2,incorrect,-1,1,incorrect,-1,1,-2.8028,1.36,6.0477
F10_Acq,F10,acq,70,3c,3,4,40783,incorrect,-1,139,1,incorrect,-1,,,,,6.5545,15.7412,-5.6514
F10_Acq,F10,acq,71,1e,1,5,54476,incorrect,-1,141,2,incorrect,-1,1,correct,1,1,-11.9505,6.4397,19.3776
F10_Acq,F10,acq,72,5d,5,1,43788,incorrect,-1,143,2,incorrect,-1,3,incorrect,-1,1,-6.3394,-0.7271,-2.252
F10_Acq,F10,acq,73,1a,1,1,42285,correct,1,145,5,incorrect,-1,2,incorrect,-1,1,13.9249,-16.2146,2.5084
F10_Acq,F10,acq,74,1o,1,2,44123,incorrect,-1,147,1,correct,1,3,incorrect,-1,1,-8.6042,24.1979,54.761
F10_Acq,F10,acq,75,5l,5,3,75682,incorrect,-1,149,1,incorrect,-1,2,incorrect,-1,1,-7.0015,-22.6016,-26.0586
F10_Acq,F10,acq,76,2i,2,5,45625,incorrect,-1,151,3,incorrect,-1,,,,,-3.0754,12.2041,-4.0986
F10_Acq,F10,acq,77,1l,1,3,61155,incorrect,-1,153,2,incorrect,-1,3,incorrect,-1,0,7.9377,13.2884,4.0888
F10_Acq,F10,acq,78,1b,1,3,54475,incorrect,-1,155,3,incorrect,-1,,,,,5.4359,32.8581,-15.4541
F10_Acq,F10,acq,79,5f,5,2,68502,incorrect,-1,157,3,incorrect,-1,,,,,-10.8552,-2.0826,-0.6708
F10_Acq,F10,acq,80,4d,4,4,63993,correct,1,159,4,correct,1,,,,,14.6782,17.0869,2.6517
F11_Acq,F11,acq,1,1f,1,1,19742,correct,1,1,,,,,,,,16.2086,-6.242,-2.2852
F11_Acq,F11,acq,2,2m,2,2,14399,correct,1,3,,,,,,,,8.2712,2.5831,38.8032
F11_Acq,F11,acq,3,5i,5,3,11059,incorrect,-1,5,,,,,,,,-4.5137,4.7377,7.5507
F11_Acq,F11,acq,4,3g,3,3,11393,correct,1,7,,,,,,,,-6.9221,-34.0627,28.3521
F11_Acq,F11,acq,5,3l,3,5,19242,incorrect,-1,9,3,correct,1,5,incorrect,-1,0,-5.8662,-9.9721,
F11_Acq,F11,acq,6,1d,1,4,11560,incorrect,-1,11,1,correct,1,3,incorrect,-1,1,-9.0487,-13.9636,22.4694
F11_Acq,F11,acq,7,2d,2,4,19241,incorrect,-1,13,2,correct,1,4,incorrect,-1,0,11.9129,-28.7775,
F11_Acq,F11,acq,8,4h,4,3,22915,incorrect,-1,15,,,,1,incorrect,-1,1,-5.9391,-24.7157,-6.2475
F11_Acq,F11,acq,9,5g,5,3,22080,incorrect,-1,17,3,incorrect,-1,3,incorrect,-1,0,-9.2752,-3.6565,
F11_Acq,F11,acq,10,3j,3,5,27591,incorrect,-1,19,5,incorrect,-1,4,incorrect,-1,1,1.6414,4.0094,
F11_Acq,F11,acq,11,2k,2,4,31598,incorrect,-1,21,4,incorrect,-1,5,incorrect,-1,1,-4.5807,-14.7633,-32.6764
F11_Acq,F11,acq,12,2j,2,5,18908,incorrect,-1,23,4,incorrect,-1,2,correct,1,1,-6.2002,-12.1113,
F11_Acq,F11,acq,13,1m,1,3,29427,incorrect,-1,25,4,incorrect,-1,3,incorrect,-1,0,-14.8211,-0.5743,-24.6393
F11_Acq,F11,acq,14,1k,1,3,29428,incorrect,-1,27,3,incorrect,-1,3,incorrect,-1,0,3.2094,-7.5259,-13.8654
F11_Acq,F11,acq,15,2o,2,2,23917,correct,1,29,5,incorrect,-1,2,correct,1,0,-3.1102,-11.6925,-34.0774
F11_Acq,F11,acq,16,5h,5,3,25587,incorrect,-1,31,3,incorrect,-1,4,incorrect,-1,1,7.6507,0.3887,-22.9299
F11_Acq,F11,acq,17,4o,4,1,22415,incorrect,-1,33,3,incorrect,-1,1,incorrect,-1,0,7.7822,-0.9133,-27.7092
F11_Acq,F11,acq,18,1h,1,3,27590,incorrect,-1,35,3,incorrect,-1,2,incorrect,-1,1,0.8838,-8.6724,-61.3065
F11_Acq,F11,acq,19,1n,1,2,30764,incorrect,-1,37,3,incorrect,-1,3,incorrect,-1,1,1.1926,8.7648,-30.9043
F11_Acq,F11,acq,20,4k,4,1,28592,incorrect,-1,39,1,incorrect,-1,3,incorrect,-1,1,7.4351,-8.4385,-13.3361
F11_Acq,F11,acq,21,5p,5,4,33101,incorrect,-1,41,3,incorrect,-1,5,correct,1,1,14.9114,-29.7842,-69.5689
F11_Acq,F11,acq,22,3d,3,4,34271,incorrect,-1,43,5,incorrect,-1,1,incorrect,-1,1,17.439,-1.593,-66.7475
F11_Acq,F11,acq,23,4l,4,3,32934,incorrect,-1,45,1,incorrect,-1,4,correct,1,1,3.1551,1.3409,-22.4685
F11_Acq,F11,acq,24,3n,3,1,32600,incorrect,-1,47,4,incorrect,-1,4,incorrect,-1,1,5.4676,-20.1174,1.7839
F11_Acq,F11,acq,25,4a,4,4,38612,correct,1,49,3,incorrect,-1,5,incorrect,-1,1,3.1791,-3.0849,-24.7202
F11_Acq,F11,acq,26,5k,5,5,37109,correct,1,51,4,incorrect,-1,3,incorrect,-1,1,17.608,-9.6961,54.8754
F11_Acq,F11,acq,27,1c,1,3,48297,incorrect,-1,53,2,incorrect,-1,4,incorrect,-1,1,-21.0248,-4.1528,51.0873
F11_Acq,F11,acq,28,2e,2,2,20578,correct,1,55,2,correct,1,1,incorrect,-1,1,22.2716,7.7631,8.83
F11_Acq,F11,acq,29,2a,2,1,40282,incorrect,-1,57,2,correct,1,2,correct,1,1,,-10.8372,
F11_Acq,F11,acq,30,5b,5,3,43621,incorrect,-1,59,5,correct,1,4,incorrect,-1,1,0.4224,,
F11_Acq,F11,acq,31,2g,2,2,33936,correct,1,61,1,incorrect,-1,4,incorrect,-1,1,-4.2987,-0.4927,22.1194
F11_Acq,F11,acq,32,2p,2,4,46794,incorrect,-1,63,2,correct,1,4,incorrect,-1,0,-1.498,-5.107,-0.3853
F11_Acq,F11,acq,33,2n,2,4,41952,incorrect,-1,65,4,incorrect,-1,5,incorrect,-1,1,-5.0558,-4.4722,18.3043
F11_Acq,F11,acq,34,4b,4,5,50801,incorrect,-1,67,4,correct,1,4,correct,1,1,-8.3197,-6.796,-12.3816
F11_Acq,F11,acq,35,3f,3,4,55311,incorrect,-1,69,1,incorrect,-1,5,incorrect,-1,1,3.7969,-5.5787,9.3663
F11_Acq,F11,acq,36,5e,5,4,45625,incorrect,-1,71,3,incorrect,-1,5,correct,1,1,5.9481,-4.4508,-30.4904
F11_Acq,F11,acq,37,1j,1,4,38778,incorrect,-1,73,3,incorrect,-1,4,incorrect,-1,0,1.1742,-22.1515,
F11_Acq,F11,acq,38,4f,4,4,35272,correct,1,75,5,incorrect,-1,5,incorrect,-1,1,-6.6094,-15.4245,
F11_Acq,F11,acq,39,2h,2,5,44623,incorrect,-1,77,4,incorrect,-1,4,incorrect,-1,1,1.7484,-18.9948,-16.8226
F11_Acq,F11,acq,40,3m,3,5,23917,incorrect,-1,79,4,incorrect,-1,2,incorrect,-1,1,0.8401,-15.6568,
F11_Acq,F11,acq,41,4g,4,5,57314,incorrect,-1,81,4,correct,1,2,incorrect,-1,1,-19.8155,,5.6455
F11_Acq,F11,acq,42,5o,5,5,51470,correct,1,83,4,incorrect,-1,4,incorrect,-1,1,2.3809,-16.7516,19.4427
F11_Acq,F11,acq,43,4m,4,2,30262,incorrect,-1,85,4,correct,1,2,incorrect,-1,0,-10.7108,-17.1882,10.2697
F11_Acq,F11,acq,44,4c,4,2,24084,incorrect,-1,87,2,incorrect,-1,2,incorrect,-1,0,0.974,13.3022,-10.652
F11_Acq,F11,acq,45,3i,3,2,42954,incorrect,-1,89,5,incorrect,-1,2,incorrect,-1,0,-2.2393,-3.9669,25.4222
F11_Acq,F11,acq,46,3e,3,2,57314,incorrect,-1,91,2,incorrect,-1,4,incorrect,-1,1,0.0681,11.1152,23.4142
F11_Acq,F11,acq,47,4j,4,2,43621,incorrect,-1,93,2,incorrect,-1,1,incorrect,-1,1,-4.8961,12.6099,
F11_Acq,F11,acq,48,3p,3,4,62157,incorrect,-1,95,2,incorrect,-1,2,incorrect,-1,1,-4.7583,12.4664,64.1619
F11_Acq,F11,acq,49,3o,3,2,48463,incorrect,-1,97,4,incorrect,-1,2,incorrect,-1,0,-10.7491,-12.2324,-43.6632
F11_Acq,F11,acq,50,5n,5,4,63326,incorrect,-1,99,5,correct,1,3,incorrect,-1,1,-10.8039,-9.4732,65.4264
F11_Acq,F11,acq,51,1p,1,4,102734,incorrect,-1,101,4,incorrect,-1,1,correct,1,1,-8.5582,-13.8911,-72.8324
F11_Acq,F11,acq,52,2b,2,4,44289,incorrect,-1,103,5,incorrect,-1,3,incorrect,-1,1,1.1093,-18.1652,-36.824
F11_Acq,F11,acq,53,2c,2,3,38946,incorrect,-1,105,4,incorrect,-1,3,incorrect,-1,0,-12.03,15.4555,4.863
F11_Acq,F11,acq,54,4p,4,1,27590,incorrect,-1,107,2,incorrect,-1,3,incorrect,-1,1,-10.7667,-4.025,11.8666
F11_Acq,F11,acq,55,1g,1,1,38946,correct,1,109,4,incorrect,-1,3,incorrect,-1,1,-20.867,8.5078,-20.0642
F11_Acq,F11,acq,56,3h,3,2,42452,incorrect,-1,111,2,incorrect,-1,3,correct,1,1,-16.5648,-7.9285,83.9112
F11_Acq,F11,acq,57,2f,2,2,29261,correct,1,113,3,incorrect,-1,3,incorrect,-1,1,-13.8431,-0.5635,-81.5816
F11_Acq,F11,acq,58,5m,5,3,82863,incorrect,-1,115,4,incorrect,-1,4,incorrect,-1,1,2.281,,-35.4743
F11_Acq,F11,acq,59,4n,4,3,35773,incorrect,-1,117,1,incorrect,-1,1,incorrect,-1,1,-9.2102,1.6484,-0.5229
F11_Acq,F11,acq,60,1i,1,3,75181,incorrect,-1,119,1,correct,1,4,incorrect,-1,1,-4.9738,,
F11_Acq,F11,acq,61,2l,2,3,124108,incorrect,-1,121,2,correct,1,4,incorrect,-1,1,7.0558,-8.7945,-14.7014
F11_Acq,F11,acq,62,3b,3,3,70673,correct,1,123,2,incorrect,-1,4,incorrect,-1,1,20.4355,-3.1413,-12.0284
F11_Acq,F11,acq,63,4e,4,1,73512,incorrect,-1,125,3,incorrect,-1,1,incorrect,-1,0,4.2001,1.8084,-18.1928
F11_Acq,F11,acq,64,5a,5,4,120100,incorrect,-1,127,3,incorrect,-1,2,incorrect,-1,1,-0.3016,,-17.0749
F11_Acq,F11,acq,65,3a,3,4,84199,incorrect,-1,129,3,correct,1,4,incorrect,-1,0,-7.6401,6.7819,-52.8758
F11_Acq,F11,acq,66,4i,4,1,89709,incorrect,-1,131,1,incorrect,-1,3,incorrect,-1,1,1.789,-18.371,
F11_Acq,F11,acq,67,3k,3,4,125110,incorrect,-1,133,4,incorrect,-1,3,correct,1,1,-9.5077,-54.1666,
F11_Acq,F11,acq,68,5j,5,2,103402,incorrect,-1,135,4,incorrect,-1,3,incorrect,-1,1,7.2677,4.6613,-28.1908
F11_Acq,F11,acq,69,5c,5,3,101899,incorrect,-1,137,2,incorrect,-1,4,incorrect,-1,1,-9.722,0.0602,-15.0718
F11_Acq,F11,acq,70,3c,3,3,28092,correct,1,139,4,incorrect,-1,,,,,0.3439,-12.4615,-1.848
F11_Acq,F11,acq,71,1e,1,4,121603,incorrect,-1,141,3,incorrect,-1,1,correct,1,1,8.8265,-10.601,175.572
F11_Acq,F11,acq,72,5d,5,4,149657,incorrect,-1,143,3,incorrect,-1,2,incorrect,-1,1,5.8435,-20.9675,69.8062
F11_Acq,F11,acq,73,1a,1,1,148822,correct,1,145,4,incorrect,-1,2,incorrect,-1,1,10.2479,-22.6774,6.274
F11_Acq,F11,acq,74,1o,1,2,126613,incorrect,-1,147,1,correct,1,2,incorrect,-1,0,-12.8248,-17.1191,17.8454
F11_Acq,F11,acq,75,5l,5,2,40949,incorrect,-1,149,4,incorrect,-1,3,incorrect,-1,1,-10.5615,-15.1008,7.5475
F11_Acq,F11,acq,76,2i,2,4,72343,incorrect,-1,151,3,incorrect,-1,,,,,-1.7266,-1.8655,162.2568
F11_Acq,F11,acq,77,1l,1,2,178879,incorrect,-1,153,2,incorrect,-1,3,incorrect,-1,1,-3.191,1.8671,62.486
F11_Acq,F11,acq,78,1b,1,3,33101,incorrect,-1,155,2,incorrect,-1,,,,,10.2011,-2.6857,-117.7473
F11_Acq,F11,acq,79,5f,5,3,61155,incorrect,-1,157,2,incorrect,-1,,,,,-3.6199,-16.2538,74.7388
F11_Acq,F11,acq,80,4d,4,3,104070,incorrect,-1,159,1,incorrect,-1,,,,,2.0143,0.2187,91.7225
F12_Acq,F12,acq,1,1f,1,3,24418,incorrect,-1,1,,,,,,,,-23.1277,,-13.5351
F12_Acq,F12,acq,2,2m,2,4,7552,incorrect,-1,3,,,,,,,,3.7167,2.329,-14.4119
F12_Acq,F12,acq,3,5i,5,5,4380,correct,1,5,,,,,,,,3.8131,-7.5369,6.5293
F12_Acq,F12,acq,4,3g,3,5,15735,incorrect,-1,7,,,,,,,,-9.6938,-9.4236,11.2904
F12_Acq,F12,acq,5,3l,3,4,18239,incorrect,-1,9,5,incorrect,-1,4,incorrect,-1,0,-2.2091,-16.8277,-35.114
F12_Acq,F12,acq,6,1d,1,3,18741,incorrect,-1,11,3,incorrect,-1,2,incorrect,-1,1,7.1191,-10.1823,-9.8287
F12_Acq,F12,acq,7,2d,2,3,53473,incorrect,-1,13,4,incorrect,-1,3,incorrect,-1,0,-10.7299,11.0098,-17.8388
F12_Acq,F12,acq,8,4h,4,5,23750,incorrect,-1,15,,,,5,incorrect,-1,0,-17.0726,-0.9395,-19.761
F12_Acq,F12,acq,9,5g,5,5,38445,correct,1,17,5,correct,1,2,incorrect,-1,1,10.9912,-0.3707,-28.6443
F12_Acq,F12,acq,10,3j,3,4,40281,incorrect,-1,19,4,incorrect,-1,3,correct,1,1,-24.3042,-16.6555,7.4048
F12_Acq,F12,acq,11,2k,2,3,18741,incorrect,-1,21,3,incorrect,-1,2,correct,1,1,4.3463,-11.787,-20.7545
F12_Acq,F12,acq,12,2j,2,2,16904,correct,1,23,3,incorrect,-1,2,correct,1,0,5.8872,-7.0666,-21.73
F12_Acq,F12,acq,13,1m,1,2,10558,incorrect,-1,25,3,incorrect,-1,5,incorrect,-1,1,1.5453,-13.1237,-16.3486
F12_Acq,F12,acq,14,1k,1,5,43955,incorrect,-1,27,2,incorrect,-1,2,incorrect,-1,1,-6.9049,-40.3938,-5.467
F12_Acq,F12,acq,15,2o,2,2,29261,correct,1,29,2,correct,1,3,incorrect,-1,1,6.011,-14.7096,-20.8161
F12_Acq,F12,acq,16,5h,5,2,15902,incorrect,-1,31,5,correct,1,4,incorrect,-1,1,-5.6565,-0.3328,-32.7327
F12_Acq,F12,acq,17,4o,4,5,24752,incorrect,-1,33,5,incorrect,-1,5,incorrect,-1,0,4.5187,-22.0648,-7.6254
F12_Acq,F12,acq,18,1h,1,2,15401,incorrect,-1,35,5,incorrect,-1,2,incorrect,-1,0,-43.0861,-33.4541,-17.8248
F12_Acq,F12,acq,19,1n,1,2,18574,incorrect,-1,37,2,incorrect,-1,3,incorrect,-1,1,26.0739,-12.0961,-20.062
F12_Acq,F12,acq,20,4k,4,5,45458,incorrect,-1,39,5,incorrect,-1,3,incorrect,-1,1,9.8942,15.3362,-19.5636
F12_Acq,F12,acq,21,5p,5,4,42452,incorrect,-1,41,2,incorrect,-1,5,correct,1,1,-20.314,-27.539,-5.8738
F12_Acq,F12,acq,22,3d,3,3,19409,correct,1,43,4,incorrect,-1,3,correct,1,0,-2.5503,7.1508,-21.9598
F12_Acq,F12,acq,23,4l,4,3,19075,incorrect,-1,45,5,incorrect,-1,3,incorrect,-1,0,-16.8979,-7.8344,-37.3146
F12_Acq,F12,acq,24,3n,3,3,21078,correct,1,47,3,correct,1,3,correct,1,0,23.6702,-2.9174,-3.0026
F12_Acq,F12,acq,25,4a,4,3,10391,incorrect,-1,49,3,incorrect,-1,3,incorrect,-1,0,-10.785,-14.3222,-36.2251
F12_Acq,F12,acq,26,5k,5,5,25420,correct,1,51,4,incorrect,-1,5,correct,1,0,-6.8712,-16.9213,-19.2369
F12_Acq,F12,acq,27,1c,1,3,56145,incorrect,-1,53,2,incorrect,-1,1,correct,1,1,7.3363,-20.8704,-18.8533
F12_Acq,F12,acq,28,2e,2,3,24418,incorrect,-1,55,2,correct,1,3,incorrect,-1,0,-13.6343,-6.7699,-15.7004
F12_Acq,F12,acq,29,2a,2,3,19909,incorrect,-1,57,3,incorrect,-1,2,correct,1,1,-22.496,,-11.403
F12_Acq,F12,acq,30,5b,5,5,22081,correct,1,59,5,correct,1,5,correct,1,0,19.7173,-15.4023,-32.6141
F12_Acq,F12,acq,31,2g,2,2,17238,correct,1,61,3,incorrect,-1,2,correct,1,0,-3.45,7.8175,-12.1418
F12_Acq,F12,acq,32,2p,2,2,20410,correct,1,63,2,correct,1,2,correct,1,0,-7.9885,-16.1835,-19.336
F12_Acq,F12,acq,33,2n,2,2,16737,correct,1,65,2,correct,1,4,incorrect,-1,1,0.9068,16.3246,4.0843
F12_Acq,F12,acq,34,4b,4,3,14399,incorrect,-1,67,3,incorrect,-1,3,incorrect,-1,0,-10.7442,6.5857,-14.2863
F12_Acq,F12,acq,35,3f,3,3,19074,correct,1,69,3,correct,1,3,correct,1,0,-7.2509,-40.9889,0.7791
F12_Acq,F12,acq,36,5e,5,5,34604,correct,1,71,5,correct,1,5,correct,1,0,,7.865,-21.6143
F12_Acq,F12,acq,37,1j,1,1,20912,correct,1,73,3,incorrect,-1,2,incorrect,-1,1,19.8738,-3.2193,-16.2303
F12_Acq,F12,acq,38,4f,4,3,16236,incorrect,-1,75,3,incorrect,-1,1,incorrect,-1,1,-5.505,-28.4733,-21.4337
F12_Acq,F12,acq,39,2h,2,4,27758,incorrect,-1,77,2,correct,1,4,incorrect,-1,0,-1.4779,-16.203,-13.6101
F12_Acq,F12,acq,40,3m,3,3,17571,correct,1,79,3,correct,1,4,incorrect,-1,1,-5.9576,-20.253,
F12_Acq,F12,acq,41,4g,4,1,21747,incorrect,-1,81,3,incorrect,-1,1,incorrect,-1,0,-8.7902,19.5169,-21.757
F12_Acq,F12,acq,42,5o,5,5,29261,correct,1,83,5,correct,1,5,correct,1,0,-0.1547,0.1474,-22.5687
F12_Acq,F12,acq,43,4m,4,1,44623,incorrect,-1,85,3,incorrect,-1,3,incorrect,-1,1,-19.6864,-0.1714,-24.5018
F12_Acq,F12,acq,44,4c,4,3,20744,incorrect,-1,87,1,incorrect,-1,1,incorrect,-1,1,-8.7444,17.4525,-23.5126
F12_Acq,F12,acq,45,3i,3,4,30096,incorrect,-1,89,3,correct,1,3,correct,1,1,6.2886,-13.6116,-3.9248
F12_Acq,F12,acq,46,3e,3,3,21412,correct,1,91,4,incorrect,-1,3,correct,1,0,4.0548,-14.3449,-10.8798
F12_Acq,F12,acq,47,4j,4,1,38779,incorrect,-1,93,3,incorrect,-1,2,incorrect,-1,1,-20.4991,-7.7221,-13.1137
F12_Acq,F12,acq,48,3p,3,3,20410,correct,1,95,3,correct,1,3,correct,1,0,-9.5624,2.025,7.5662
F12_Acq,F12,acq,49,3o,3,3,21078,correct,1,97,3,correct,1,3,correct,1,0,-4.5718,-5.1354,-3.276
F12_Acq,F12,acq,50,5n,5,5,28092,correct,1,99,5,correct,1,5,correct,1,0,3.4964,15.8975,-27.0416
F12_Acq,F12,acq,51,1p,1,2,21078,incorrect,-1,101,1,correct,1,2,incorrect,-1,0,3.371,-15.0869,-29.0534
F12_Acq,F12,acq,52,2b,2,4,26088,incorrect,-1,103,4,incorrect,-1,1,incorrect,-1,1,7.7707,-21.9056,-10.3875
F12_Acq,F12,acq,53,2c,2,1,19575,incorrect,-1,105,4,incorrect,-1,4,incorrect,-1,1,2.4724,-6.0401,-14.341
F12_Acq,F12,acq,54,4p,4,2,32767,incorrect,-1,107,1,incorrect,-1,2,incorrect,-1,0,4.863,19.849,-22.3579
F12_Acq,F12,acq,55,1g,1,2,34605,incorrect,-1,109,2,incorrect,-1,5,incorrect,-1,1,8.7213,-1.565,-22.3006
F12_Acq,F12,acq,56,3h,3,3,17071,correct,1,111,3,correct,1,3,correct,1,0,-7.2053,-20.5665,-17.4123
F12_Acq,F12,acq,57,2f,2,1,27758,incorrect,-1,113,1,incorrect,-1,4,incorrect,-1,1,,19.8536,-32.1247
F12_Acq,F12,acq,58,5m,5,5,28759,correct,1,115,5,correct,1,5,correct,1,0,-11.2103,-7.4879,-20.1422
F12_Acq,F12,acq,59,4n,4,2,52806,incorrect,-1,117,2,incorrect,-1,2,incorrect,-1,0,-22.9028,-5.4492,2.3536
F12_Acq,F12,acq,60,1i,1,5,22581,incorrect,-1,119,2,incorrect,-1,4,incorrect,-1,1,-11.2561,2.9939,-30.8384
F12_Acq,F12,acq,61,2l,2,4,26755,incorrect,-1,121,1,incorrect,-1,2,correct,1,1,-17.2011,7.0006,-0.7297
F12_Acq,F12,acq,62,3b,3,3,17572,correct,1,123,3,correct,1,3,correct,1,0,,-8.6525,-9.6767
F12_Acq,F12,acq,63,4e,4,2,30429,incorrect,-1,125,2,incorrect,-1,2,incorrect,-1,0,-12.0803,7.8146,9.1607
F12_Acq,F12,acq,64,5a,5,5,14232,correct,1,127,5,correct,1,5,correct,1,0,4.296,-8.9386,-3.7398
F12_Acq,F12,acq,65,3a,3,3,14065,correct,1,129,3,correct,1,3,correct,1,0,-22.8714,0.5567,16.2062
F12_Acq,F12,acq,66,4i,4,2,20911,incorrect,-1,131,2,incorrect,-1,4,correct,1,1,-12.8684,4.2154,-18.1664
F12_Acq,F12,acq,67,3k,3,3,14733,correct,1,133,3,correct,1,3,correct,1,0,-6.6082,10.8321,-12.8516
F12_Acq,F12,acq,68,5j,5,5,48464,correct,1,135,5,correct,1,5,correct,1,0,25.1095,,
F12_Acq,F12,acq,69,5c,5,5,39780,correct,1,137,5,correct,1,5,correct,1,0,,-3.818,-18.6469
F12_Acq,F12,acq,70,3c,3,3,14065,correct,1,139,3,correct,1,,,,,1.9678,,-16.9114
F12_Acq,F12,acq,71,1e,1,4,35606,incorrect,-1,141,5,incorrect,-1,5,incorrect,-1,1,-28.4878,2.8901,-5.2225
F12_Acq,F12,acq,72,5d,5,5,16069,correct,1,143,5,correct,1,5,correct,1,0,-18.521,40.9111,0.2947
F12_Acq,F12,acq,73,1a,1,5,21913,incorrect,-1,145,4,incorrect,-1,2,incorrect,-1,1,10.5628,-4.8006,-30.2683
F12_Acq,F12,acq,74,1o,1,2,41785,incorrect,-1,147,5,incorrect,-1,5,incorrect,-1,1,-19.8819,8.1148,-23.371
F12_Acq,F12,acq,75,5l,5,5,15400,correct,1,149,5,correct,1,5,correct,1,0,-4.8567,33.0146,-42.0043
F12_Acq,F12,acq,76,2i,2,2,35773,correct,1,151,4,incorrect,-1,,,,,-4.7219,-9.9803,-16.0581
F12_Acq,F12,acq,77,1l,1,5,14232,incorrect,-1,153,2,incorrect,-1,5,incorrect,-1,0,-4.8597,8.6209,-14.4329
F12_Acq,F12,acq,78,1b,1,5,30764,incorrect,-1,155,5,incorrect,-1,,,,,10.1382,23.5287,-6.4895
F12_Acq,F12,acq,79,5f,5,5,14232,correct,1,157,5,correct,1,,,,,-15.9587,-7.7273,13.2838
F12_Acq,F12,acq,80,4d,4,4,40449,correct,1,159,2,incorrect,-1,,,,,-0.0222,-13.3531,-10.4033
F13_Acq,F13,acq,1,1f,1,1,21078,correct,1,1,,,,,,,,-28.4953,-13.2723,1.4218
F13_Acq,F13,acq,2,2m,2,2,13063,correct,1,3,,,,,,,,-10.8762,5.4322,21.5353
F13_Acq,F13,acq,3,5i,5,3,9556,incorrect,-1,5,,,,,,,,-0.8681,-14.9793,25.38
F13_Acq,F13,acq,4,3g,3,2,15902,incorrect,-1,7,,,,,,,,-27.1353,-1.2397,9.3091
F13_Acq,F13,acq,5,3l,3,3,46293,correct,1,9,2,incorrect,-1,3,correct,1,0,14.7492,19.0171,14.9174
F13_Acq,F13,acq,6,1d,1,2,13230,incorrect,-1,11,1,correct,1,1,correct,1,1,5.6118,-3.7497,-14.7166
F13_Acq,F13,acq,7,2d,2,3,10892,incorrect,-1,13,2,correct,1,2,correct,1,1,5.2985,4.2553,-4.726
F13_Acq,F13,acq,8,4h,4,4,13731,correct,1,15,,,,1,incorrect,-1,1,9.7452,-14.6746,12.4594
F13_Acq,F13,acq,9,5g,5,4,10224,incorrect,-1,17,3,incorrect,-1,5,correct,1,1,-10.8993,-0.6359,4.9638
F13_Acq,F13,acq,10,3j,3,3,25086,correct,1,19,3,correct,1,2,incorrect,-1,1,-3.0764,17.9124,9.0193
F13_Acq,F13,acq,11,2k,2,2,19575,correct,1,21,3,incorrect,-1,2,correct,1,0,8.7177,-10.8835,-11.158
F13_Acq,F13,acq,12,2j,2,2,23416,correct,1,23,2,correct,1,3,incorrect,-1,1,31.3611,-2.1664,-3.5837
F13_Acq,F13,acq,13,1m,1,1,18741,correct,1,25,2,incorrect,-1,4,incorrect,-1,1,16.7935,-18.3523,-18.3709
F13_Acq,F13,acq,14,1k,1,4,21913,incorrect,-1,27,1,correct,1,4,incorrect,-1,0,-13.8809,-12.8808,-16.2361
F13_Acq,F13,acq,15,2o,2,3,33101,incorrect,-1,29,2,correct,1,5,incorrect,-1,1,-14.8056,-9.6291,-0.0446
F13_Acq,F13,acq,16,5h,5,5,17071,correct,1,31,4,incorrect,-1,4,incorrect,-1,1,5.6433,1.1073,-13.2042
F13_Acq,F13,acq,17,4o,4,1,19742,incorrect,-1,33,4,correct,1,5,incorrect,-1,1,2.3195,11.718,-4.7782
F13_Acq,F13,acq,18,1h,1,4,33602,incorrect,-1,35,4,incorrect,-1,4,incorrect,-1,0,7.9527,4.6648,
F13_Acq,F13,acq,19,1n,1,4,39113,incorrect,-1,37,4,incorrect,-1,3,incorrect,-1,1,,20.5423,-24.7082
F13_Acq,F13,acq,20,4k,4,5,38779,incorrect,-1,39,1,incorrect,-1,3,incorrect,-1,1,-0.7126,,18.4739
F13_Acq,F13,acq,21,5p,5,4,62157,incorrect,-1,41,5,correct,1,1,incorrect,-1,1,11.7102,34.4678,-14.2672
F13_Acq,F13,acq,22,3d,3,2,20577,incorrect,-1,43,3,correct,1,2,incorrect,-1,0,-0.559,-6.6423,-4.8548
F13_Acq,F13,acq,23,4l,4,3,92214,incorrect,-1,45,5,incorrect,-1,1,incorrect,-1,1,-5.1436,-22.2847,-14.4852
F13_Acq,F13,acq,24,3n,3,2,72844,incorrect,-1,47,2,incorrect,-1,1,incorrect,-1,1,-19.0473,18.936,-23.1605
F13_Acq,F13,acq,25,4a,4,1,15902,incorrect,-1,49,3,incorrect,-1,1,incorrect,-1,0,1.7912,-17.8925,-20.7793
F13_Acq,F13,acq,26,5k,5,1,14232,incorrect,-1,51,4,incorrect,-1,4,incorrect,-1,1,-9.5498,-9.2852,-38.5209
F13_Acq,F13,acq,27,1c,1,3,31599,incorrect,-1,53,4,incorrect,-1,1,correct,1,1,-16.2478,-11.3336,-10.8605
F13_Acq,F13,acq,28,2e,2,5,247677,incorrect,-1,55,3,incorrect,-1,4,incorrect,-1,1,10.1322,-14.575,-12.0203
F13_Acq,F13,acq,29,2a,2,4,12729,incorrect,-1,57,5,incorrect,-1,2,correct,1,1,-4.322,23.3287,-2.84
F13_Acq,F13,acq,30,5b,5,4,12228,incorrect,-1,59,1,incorrect,-1,1,incorrect,-1,1,-2.8249,-9.7153,15.9089
F13_Acq,F13,acq,31,2g,2,2,10892,correct,1,61,4,incorrect,-1,2,correct,1,0,-2.8544,-33.3443,-9.8988
F13_Acq,F13,acq,32,2p,2,2,13564,correct,1,63,2,correct,1,2,correct,1,0,8.4426,7.654,5.1945
F13_Acq,F13,acq,33,2n,2,2,9222,correct,1,65,2,correct,1,2,correct,1,0,27.3133,-17.936,-11.7261
F13_Acq,F13,acq,34,4b,4,1,13731,incorrect,-1,67,1,incorrect,-1,3,incorrect,-1,1,-15.7385,-2.494,-4.7663
F13_Acq,F13,acq,35,3f,3,1,9557,incorrect,-1,69,2,incorrect,-1,1,incorrect,-1,0,-5.9112,4.3912,-22.8059
F13_Acq,F13,acq,36,5e,5,1,24084,incorrect,-1,71,4,incorrect,-1,1,incorrect,-1,0,-17.2163,-10.6504,-14.5666
F13_Acq,F13,acq,37,1j,1,1,10058,correct,1,73,3,incorrect,-1,5,incorrect,-1,1,4.9996,-31.693,15.2661
F13_Acq,F13,acq,38,4f,4,3,15734,incorrect,-1,75,1,incorrect,-1,1,incorrect,-1,1,2.1401,8.1669,
F13_Acq,F13,acq,39,2h,2,2,9724,correct,1,77,2,correct,1,2,correct,1,0,,-3.6625,32.9183
F13_Acq,F13,acq,40,3m,3,1,24419,incorrect,-1,79,1,incorrect,-1,1,incorrect,-1,0,-3.9297,-20.5476,12.3878
F13_Acq,F13,acq,41,4g,4,1,11394,incorrect,-1,81,3,incorrect,-1,3,incorrect,-1,1,-3.6597,-18.7223,-9.5006
F13_Acq,F13,acq,42,5o,5,1,16570,incorrect,-1,83,1,incorrect,-1,1,incorrect,-1,0,3.9459,6.1354,-8.8793
F13_Acq,F13,acq,43,4m,4,3,17906,incorrect,-1,85,3,incorrect,-1,4,correct,1,1,3.0266,4.897,-6.68
F13_Acq,F13,acq,44,4c,4,4,11894,correct,1,87,3,incorrect,-1,1,incorrect,-1,1,9.5134,,-16.6926
F13_Acq,F13,acq,45,3i,3,1,33936,incorrect,-1,89,1,incorrect,-1,4,incorrect,-1,1,-4.787,6.8723,-3.7799
F13_Acq,F13,acq,46,3e,3,4,11560,incorrect,-1,91,1,incorrect,-1,2,incorrect,-1,1,5.4568,-16.2337,0.4675
F13_Acq,F13,acq,47,4j,4,1,37610,incorrect,-1,93,4,correct,1,4,correct,1,1,-8.1268,-16.535,-20.5645
F13_Acq,F13,acq,48,3p,3,2,15735,incorrect,-1,95,4,incorrect,-1,5,incorrect,-1,1,-3.1702,39.8744,-7.8928
F13_Acq,F13,acq,49,3o,3,5,23250,incorrect,-1,97,2,incorrect,-1,3,correct,1,1,-5.3078,-25.5477,3.3229
F13_Acq,F13,acq,50,5n,5,1,60987,incorrect,-1,99,1,incorrect,-1,5,correct,1,1,-29.3566,-10.0957,-31.0872
F13_Acq,F13,acq,51,1p,1,5,17906,incorrect,-1,101,1,correct,1,3,incorrect,-1,1,-5.3461,-23.9757,-24.9108
F13_Acq,F13,acq,52,2b,2,2,12562,correct,1,103,2,correct,1,2,correct,1,0,-3.2071,-13.6318,11.7821
F13_Acq,F13,acq,53,2c,2,2,10558,correct,1,105,2,correct,1,2,correct,1,0,-11.0075,0.8405,-25.796
F13_Acq,F13,acq,54,4p,4,4,41784,correct,1,107,1,incorrect,-1,1,incorrect,-1,1,3.5676,7.2343,-7.3869
F13_Acq,F13,acq,55,1g,1,3,24585,incorrect,-1,109,5,incorrect,-1,1,correct,1,1,-0.5179,16.114,18.5128
F13_Acq,F13,acq,56,3h,3,3,11393,correct,1,111,5,incorrect,-1,3,correct,1,0,9.1765,5.9472,20.1977
F13_Acq,F13,acq,57,2f,2,2,11227,correct,1,113,2,correct,1,2,correct,1,0,-21.6205,-15.9849,-10.7682
F13_Acq,F13,acq,58,5m,5,5,14065,correct,1,115,1,incorrect,-1,5,correct,1,0,-9.397,1.1168,-8.6398
F13_Acq,F13,acq,59,4n,4,1,18240,incorrect,-1,117,4,correct,1,4,correct,1,1,-9.0736,-4.1767,0.8316
F13_Acq,F13,acq,60,1i,1,1,63993,correct,1,119,3,incorrect,-1,4,incorrect,-1,1,10.3029,38.7832,14.1023
F13_Acq,F13,acq,61,2l,2,2,9390,correct,1,121,2,correct,1,2,correct,1,0,-10.2995,24.0291,14.069
F13_Acq,F13,acq,62,3b,3,3,39947,correct,1,123,3,correct,1,3,correct,1,0,-2.1223,-17.7568,-15.2203
F13_Acq,F13,acq,63,4e,4,4,23082,correct,1,125,1,incorrect,-1,4,correct,1,0,3.6917,2.2798,-36.6464
F13_Acq,F13,acq,64,5a,5,5,8221,correct,1,127,5,correct,1,1,incorrect,-1,1,-5.3037,-15.7825,-16.399
F13_Acq,F13,acq,65,3a,3,3,29260,correct,1,129,3,correct,1,1,incorrect,-1,1,3.6419,10.7268,2.0804
F13_Acq,F13,acq,66,4i,4,4,50468,correct,1,131,4,correct,1,3,incorrect,-1,1,2.8385,-13.1483,-31.0172
F13_Acq,F13,acq,67,3k,3,1,20076,incorrect,-1,133,3,correct,1,3,correct,1,1,9.1841,4.0947,-13.2427
F13_Acq,F13,acq,68,5j,5,1,17238,incorrect,-1,135,5,correct,1,5,correct,1,1,-7.0585,2.8721,-16.9728
